pnum,phase_id,condition,block_data,trial_num,stim,correct_category,response,hit,rt,criterian,met_criterian,num_correct_in_block
11006,training_phase_1,1,1,1,materials/images/blueB5.png,Beta,Alpha,False,2.862772300024517,11,False,0
11006,training_phase_1,1,1,2,materials/images/blueB1.png,Beta,Beta,True,0.9002013999270275,11,False,1
11006,training_phase_1,1,1,3,materials/images/blueB2.png,Beta,Beta,True,0.8895506000844762,11,False,2
11006,training_phase_1,1,1,4,materials/images/redA1.png,Alpha,Beta,False,1.0117034999420866,11,False,2
11006,training_phase_1,1,1,5,materials/images/redA5.png,Alpha,Beta,False,1.5639260000316426,11,False,2
11006,training_phase_1,1,1,6,materials/images/redA6.png,Alpha,Alpha,True,0.2805336000164971,11,False,3
11006,training_phase_1,1,1,7,materials/images/blueB4.png,Beta,Beta,True,3.0387265000026673,11,False,4
11006,training_phase_1,1,1,8,materials/images/redA3.png,Alpha,Alpha,True,3.3296711000148207,11,False,5
11006,training_phase_1,1,1,9,materials/images/redA4.png,Alpha,Beta,False,0.48480520001612604,11,False,5
11006,training_phase_1,1,1,10,materials/images/blueB6.png,Beta,Beta,True,0.4033419999759644,11,False,6
11006,training_phase_1,1,1,11,materials/images/blueB3.png,Beta,Alpha,False,0.26464240008499473,11,False,6
11006,training_phase_1,1,1,12,materials/images/redA2.png,Alpha,Alpha,True,0.9909657000098377,11,False,7
11006,training_phase_1,1,2,13,materials/images/redA3.png,Alpha,Alpha,True,0.7050808999920264,11,False,1
11006,training_phase_1,1,2,14,materials/images/blueB1.png,Beta,Alpha,False,0.46691169997211546,11,False,1
11006,training_phase_1,1,2,15,materials/images/redA1.png,Alpha,Alpha,True,0.15530019998550415,11,False,2
11006,training_phase_1,1,2,16,materials/images/blueB5.png,Beta,Beta,True,0.4963026000186801,11,False,3
11006,training_phase_1,1,2,17,materials/images/redA5.png,Alpha,Beta,False,1.1450547000858933,11,False,3
11006,training_phase_1,1,2,18,materials/images/blueB3.png,Beta,Alpha,False,3.045373300090432,11,False,3
11006,training_phase_1,1,2,19,materials/images/blueB6.png,Beta,Beta,True,0.5865231000352651,11,False,4
11006,training_phase_1,1,2,20,materials/images/redA6.png,Alpha,Alpha,True,0.8929022999946028,11,False,5
11006,training_phase_1,1,2,21,materials/images/blueB4.png,Beta,Beta,True,0.02360329998191446,11,False,6
11006,training_phase_1,1,2,22,materials/images/blueB2.png,Beta,Alpha,False,0.19222030008677393,11,False,6
11006,training_phase_1,1,2,23,materials/images/redA2.png,Alpha,Alpha,True,0.280388499959372,11,False,7
11006,training_phase_1,1,2,24,materials/images/redA4.png,Alpha,Alpha,True,4.44967150001321,11,False,8
11006,training_phase_1,1,3,25,materials/images/blueB5.png,Beta,Beta,True,0.9805932000745088,11,False,1
11006,training_phase_1,1,3,26,materials/images/redA6.png,Alpha,Alpha,True,1.0277969999006018,11,False,2
11006,training_phase_1,1,3,27,materials/images/redA5.png,Alpha,Alpha,True,0.1738469999982044,11,False,3
11006,training_phase_1,1,3,28,materials/images/blueB1.png,Beta,Alpha,False,1.0795182000147179,11,False,3
11006,training_phase_1,1,3,29,materials/images/blueB3.png,Beta,Alpha,False,0.8280366000253707,11,False,3
11006,training_phase_1,1,3,30,materials/images/blueB6.png,Beta,Beta,True,0.2066821000771597,11,False,4
11006,training_phase_1,1,3,31,materials/images/redA4.png,Alpha,Alpha,True,1.5108125999104232,11,False,5
11006,training_phase_1,1,3,32,materials/images/redA1.png,Alpha,Alpha,True,0.9791555000701919,11,False,6
11006,training_phase_1,1,3,33,materials/images/redA3.png,Alpha,Alpha,True,0.9837387999286875,11,False,7
11006,training_phase_1,1,3,34,materials/images/blueB4.png,Beta,Beta,True,0.01974070002324879,11,False,8
11006,training_phase_1,1,3,35,materials/images/blueB2.png,Beta,Beta,True,1.0191482999362051,11,False,9
11006,training_phase_1,1,3,36,materials/images/redA2.png,Alpha,Alpha,True,0.0493387000169605,11,False,10
11006,training_phase_1,1,4,37,materials/images/redA5.png,Alpha,Beta,False,1.6144266999326646,11,False,0
11006,training_phase_1,1,4,38,materials/images/redA4.png,Alpha,Alpha,True,0.8639679999323562,11,False,1
11006,training_phase_1,1,4,39,materials/images/blueB4.png,Beta,Beta,True,0.024309000000357628,11,False,2
11006,training_phase_1,1,4,40,materials/images/blueB6.png,Beta,Alpha,False,1.1406941000605002,11,False,2
11006,training_phase_1,1,4,41,materials/images/redA1.png,Alpha,Alpha,True,0.1557147999992594,11,False,3
11006,training_phase_1,1,4,42,materials/images/blueB3.png,Beta,Beta,True,0.74772220000159,11,False,4
11006,training_phase_1,1,4,43,materials/images/blueB2.png,Beta,Alpha,False,0.485546899959445,11,False,4
11006,training_phase_1,1,4,44,materials/images/redA6.png,Alpha,Beta,False,1.1169848999707028,11,False,4
11006,training_phase_1,1,4,45,materials/images/redA3.png,Alpha,Alpha,True,0.31622739997692406,11,False,5
11006,training_phase_1,1,4,46,materials/images/blueB1.png,Beta,Beta,True,0.2327997999964282,11,False,6
11006,training_phase_1,1,4,47,materials/images/blueB5.png,Beta,Beta,True,2.0314175999956205,11,False,7
11006,training_phase_1,1,4,48,materials/images/redA2.png,Alpha,Beta,False,4.971460900036618,11,False,7
11006,training_phase_1,1,5,49,materials/images/blueB4.png,Beta,Beta,True,5.67088240000885,11,False,1
11006,training_phase_1,1,5,50,materials/images/redA3.png,Alpha,Alpha,True,0.15959739999379963,11,False,2
11006,training_phase_1,1,5,51,materials/images/blueB5.png,Beta,Beta,True,1.6108303000219166,11,False,3
11006,training_phase_1,1,5,52,materials/images/blueB6.png,Beta,Alpha,False,1.5782188999000937,11,False,3
11006,training_phase_1,1,5,53,materials/images/redA4.png,Alpha,Alpha,True,0.6430528999771923,11,False,4
11006,training_phase_1,1,5,54,materials/images/blueB1.png,Beta,Beta,True,1.9185705999843776,11,False,5
11006,training_phase_1,1,5,55,materials/images/blueB3.png,Beta,Alpha,False,0.1981293000280857,11,False,5
11006,training_phase_1,1,5,56,materials/images/blueB2.png,Beta,Alpha,False,1.4251079000532627,11,False,5
11006,training_phase_1,1,5,57,materials/images/redA5.png,Alpha,Alpha,True,0.8795832999749109,11,False,6
11006,training_phase_1,1,5,58,materials/images/redA6.png,Alpha,Beta,False,0.023934299941174686,11,False,6
11006,training_phase_1,1,5,59,materials/images/redA1.png,Alpha,Beta,False,0.8916182999964803,11,False,6
11006,training_phase_1,1,5,60,materials/images/redA2.png,Alpha,Alpha,True,0.3040906999958679,11,False,7
11006,training_phase_1,1,6,61,materials/images/redA1.png,Alpha,Alpha,True,0.01831579999998212,11,False,1
11006,training_phase_1,1,6,62,materials/images/blueB4.png,Beta,Beta,True,0.02351299999281764,11,False,2
11006,training_phase_1,1,6,63,materials/images/blueB3.png,Beta,Alpha,False,2.044049600022845,11,False,2
11006,training_phase_1,1,6,64,materials/images/redA6.png,Alpha,Beta,False,0.1370430999668315,11,False,2
11006,training_phase_1,1,6,65,materials/images/blueB5.png,Beta,Beta,True,1.033122600056231,11,False,3
11006,training_phase_1,1,6,66,materials/images/blueB6.png,Beta,Alpha,False,1.6863153000595048,11,False,3
11006,training_phase_1,1,6,67,materials/images/blueB2.png,Beta,Beta,True,2.588268299936317,11,False,4
11006,training_phase_1,1,6,68,materials/images/redA2.png,Alpha,Alpha,True,0.9414036999223754,11,False,5
11006,training_phase_1,1,6,69,materials/images/redA5.png,Alpha,Alpha,True,0.30645609996281564,11,False,6
11006,training_phase_1,1,6,70,materials/images/redA4.png,Alpha,Alpha,True,0.022997899912297726,11,False,7
11006,training_phase_1,1,6,71,materials/images/blueB1.png,Beta,Beta,True,1.372700500069186,11,False,8
11006,training_phase_1,1,6,72,materials/images/redA3.png,Alpha,Alpha,True,3.690941800014116,11,False,9
11006,training_phase_1,1,7,73,materials/images/blueB3.png,Beta,Beta,True,0.13961579999886453,11,False,1
11006,training_phase_1,1,7,74,materials/images/blueB5.png,Beta,Beta,True,1.453489899984561,11,False,2
11006,training_phase_1,1,7,75,materials/images/blueB1.png,Beta,Alpha,False,0.319713200093247,11,False,2
11006,training_phase_1,1,7,76,materials/images/blueB2.png,Beta,Alpha,False,0.018952100072056055,11,False,2
11006,training_phase_1,1,7,77,materials/images/redA6.png,Alpha,Alpha,True,1.2138204000657424,11,False,3
11006,training_phase_1,1,7,78,materials/images/redA5.png,Alpha,Alpha,True,0.6261848999420181,11,False,4
11006,training_phase_1,1,7,79,materials/images/blueB6.png,Beta,Beta,True,0.8359746999340132,11,False,5
11006,training_phase_1,1,7,80,materials/images/blueB4.png,Beta,Alpha,False,2.0969983999384567,11,False,5
11006,training_phase_1,1,7,81,materials/images/redA2.png,Alpha,Alpha,True,0.9011454000137746,11,False,6
11006,training_phase_1,1,7,82,materials/images/redA4.png,Alpha,Alpha,True,2.1466902000829577,11,False,7
11006,training_phase_1,1,7,83,materials/images/redA1.png,Alpha,Alpha,True,0.6224762999918312,11,False,8
11006,training_phase_1,1,7,84,materials/images/redA3.png,Alpha,Alpha,True,2.32087080006022,11,False,9
11006,training_phase_1,1,8,85,materials/images/blueB2.png,Beta,Alpha,False,0.42738770006690174,11,False,0
11006,training_phase_1,1,8,86,materials/images/redA1.png,Alpha,Alpha,True,2.11955200007651,11,False,1
11006,training_phase_1,1,8,87,materials/images/blueB4.png,Beta,Beta,True,0.532215700019151,11,False,2
11006,training_phase_1,1,8,88,materials/images/blueB3.png,Beta,Alpha,False,1.5742928000399843,11,False,2
11006,training_phase_1,1,8,89,materials/images/blueB6.png,Beta,Beta,True,0.3041046999860555,11,False,3
11006,training_phase_1,1,8,90,materials/images/redA6.png,Alpha,Alpha,True,0.1782530000200495,11,False,4
11006,training_phase_1,1,8,91,materials/images/redA5.png,Alpha,Alpha,True,0.9682997999479994,11,False,5
11006,training_phase_1,1,8,92,materials/images/redA2.png,Alpha,Alpha,True,1.3245113000739366,11,False,6
11006,training_phase_1,1,8,93,materials/images/redA4.png,Alpha,Alpha,True,1.4609360999893397,11,False,7
11006,training_phase_1,1,8,94,materials/images/redA3.png,Alpha,Alpha,True,0.3743395999772474,11,False,8
11006,training_phase_1,1,8,95,materials/images/blueB1.png,Beta,Beta,True,0.3088335000211373,11,False,9
11006,training_phase_1,1,8,96,materials/images/blueB5.png,Beta,Beta,True,0.4935994000406936,11,False,10
pnum,phase_id,condition,block_data,trial_num,stim,correct_category,response,hit,rt,criterian,met_criterian,num_correct_in_block
11006,test_phase,1,1,1,materials/images/yGen2.png,test,Alpha,gen,3.153475899947807,1,True,1
11006,test_phase,1,1,2,materials/images/yGen1.png,test,Alpha,gen,3.4702135999687016,1,True,2
11006,test_phase,1,1,3,materials/images/yGen4.png,test,Beta,gen,1.5920997000066563,1,True,3
11006,test_phase,1,1,4,materials/images/blueB1.png,Beta,Beta,gen,0.4883984999032691,1,True,4
11006,test_phase,1,1,5,materials/images/redA4.png,Alpha,Alpha,gen,0.9629864000016823,1,True,5
11006,test_phase,1,1,6,materials/images/blueB6.png,Beta,Beta,gen,0.6612520000198856,1,True,6
11006,test_phase,1,1,7,materials/images/blueB5.png,Beta,Beta,gen,0.024372000014409423,1,True,7
11006,test_phase,1,1,8,materials/images/blueB4.png,Beta,Beta,gen,2.001913500018418,1,True,8
11006,test_phase,1,1,9,materials/images/redA6.png,Alpha,Alpha,gen,0.8648899999679998,1,True,9
11006,test_phase,1,1,10,materials/images/blueB3.png,Beta,Beta,gen,1.8147460999898612,1,True,10
11006,test_phase,1,1,11,materials/images/redA2.png,Alpha,Alpha,gen,0.019271899946033955,1,True,11
11006,test_phase,1,1,12,materials/images/redA3.png,Alpha,Alpha,gen,0.23417039995547384,1,True,12
11006,test_phase,1,1,13,materials/images/redA1.png,Alpha,Alpha,gen,0.01833490002900362,1,True,13
11006,test_phase,1,1,14,materials/images/redA5.png,Alpha,Alpha,gen,0.7123864999739453,1,True,14
11006,test_phase,1,1,15,materials/images/blueB2.png,Beta,Beta,gen,0.08963379997294396,1,True,15
11006,test_phase,1,1,16,materials/images/yGen3.png,test,Beta,gen,0.9466482000425458,1,True,16
11006,test_phase,1,1,17,materials/images/yGen5.png,test,Alpha,gen,2.095772400032729,1,True,17
pnum,phase_id,condition,block_data,trial_num,stim,correct_category,response,hit,rt,criterian,met_criterian,num_correct_in_block
11006,training_phase_2,1,1,1,materials/images/greenD5.png,Delta,Alpha,False,5.4153071999317035,30,False,0
11006,training_phase_2,1,1,2,materials/images/blueB2.png,Beta,Beta,True,0.768724900088273,30,False,1
11006,training_phase_2,1,1,3,materials/images/blackG4.png,Gamma,Alpha,False,1.2186114999931306,30,False,1
11006,training_phase_2,1,1,4,materials/images/greenD2.png,Delta,Alpha,False,4.234923500102013,30,False,1
11006,training_phase_2,1,1,5,materials/images/redA3.png,Alpha,Alpha,True,0.7491077999584377,30,False,2
11006,training_phase_2,1,1,6,materials/images/greenD1.png,Delta,Gamma,False,0.41456549998838454,30,False,2
11006,training_phase_2,1,1,7,materials/images/blackG1.png,Gamma,Alpha,False,0.021470799925737083,30,False,2
11006,training_phase_2,1,1,8,materials/images/blueB3.png,Beta,Alpha,False,6.496550599928014,30,False,2
11006,training_phase_2,1,1,9,materials/images/blackG6.png,Gamma,Beta,False,0.08607480011414737,30,False,2
11006,training_phase_2,1,1,10,materials/images/redA2.png,Alpha,Alpha,True,0.24214650003705174,30,False,3
11006,training_phase_2,1,1,11,materials/images/blueB1.png,Beta,Gamma,False,2.1363443000009283,30,False,3
11006,training_phase_2,1,1,12,materials/images/redA6.png,Alpha,Delta,False,6.183054100023583,30,False,3
11006,training_phase_2,1,1,13,materials/images/blueB4.png,Beta,Alpha,False,0.8531679000006989,30,False,3
11006,training_phase_2,1,1,14,materials/images/blueB5.png,Beta,Beta,True,0.021223700023256242,30,False,4
11006,training_phase_2,1,1,15,materials/images/blackG5.png,Gamma,Gamma,True,1.4530337000032887,30,False,5
11006,training_phase_2,1,1,16,materials/images/blackG2.png,Gamma,Delta,False,0.40532519994303584,30,False,5
11006,training_phase_2,1,1,17,materials/images/redA5.png,Alpha,Beta,False,0.20348849997390062,30,False,5
11006,training_phase_2,1,1,18,materials/images/redA4.png,Alpha,Alpha,True,0.02073360001668334,30,False,6
11006,training_phase_2,1,1,19,materials/images/blackG3.png,Gamma,Beta,False,4.108514099963941,30,False,6
11006,training_phase_2,1,1,20,materials/images/redA1.png,Alpha,Alpha,True,4.7236238000914454,30,False,7
11006,training_phase_2,1,1,21,materials/images/blueB6.png,Beta,Beta,True,0.2808567000320181,30,False,8
11006,training_phase_2,1,1,22,materials/images/greenD4.png,Delta,Delta,True,0.5911722000455484,30,False,9
11006,training_phase_2,1,1,23,materials/images/greenD3.png,Delta,Delta,True,0.18801729998085648,30,False,10
11006,training_phase_2,1,1,24,materials/images/greenD6.png,Delta,Gamma,False,0.15478400001302361,30,False,10
11006,training_phase_2,1,2,25,materials/images/redA6.png,Alpha,Beta,False,1.8496608000714332,30,False,0
11006,training_phase_2,1,2,26,materials/images/blueB6.png,Beta,Beta,True,0.5511825000867248,30,False,1
11006,training_phase_2,1,2,27,materials/images/blackG1.png,Gamma,Alpha,False,0.9901668999809772,30,False,1
11006,training_phase_2,1,2,28,materials/images/redA5.png,Alpha,Alpha,True,1.3070922000333667,30,False,2
11006,training_phase_2,1,2,29,materials/images/blueB2.png,Beta,Beta,True,2.7871325000887737,30,False,3
11006,training_phase_2,1,2,30,materials/images/greenD5.png,Delta,Alpha,False,1.1840122999856248,30,False,3
11006,training_phase_2,1,2,31,materials/images/redA4.png,Alpha,Gamma,False,2.837533500045538,30,False,3
11006,training_phase_2,1,2,32,materials/images/redA2.png,Alpha,Alpha,True,0.01856470003258437,30,False,4
11006,training_phase_2,1,2,33,materials/images/greenD2.png,Delta,Gamma,False,1.7133900000480935,30,False,4
11006,training_phase_2,1,2,34,materials/images/greenD6.png,Delta,Beta,False,1.0024684999370947,30,False,4
11006,training_phase_2,1,2,35,materials/images/blackG3.png,Gamma,Beta,False,1.8933766999980435,30,False,4
11006,training_phase_2,1,2,36,materials/images/blueB4.png,Beta,Delta,False,0.7858645999804139,30,False,4
11006,training_phase_2,1,2,37,materials/images/greenD1.png,Delta,Gamma,False,1.9100257999962196,30,False,4
11006,training_phase_2,1,2,38,materials/images/blueB5.png,Beta,Beta,True,0.6918714001076296,30,False,5
11006,training_phase_2,1,2,39,materials/images/redA3.png,Alpha,Alpha,True,0.018848700099624693,30,False,6
11006,training_phase_2,1,2,40,materials/images/blackG4.png,Gamma,Beta,False,0.41893819998949766,30,False,6
11006,training_phase_2,1,2,41,materials/images/blueB3.png,Beta,Gamma,False,0.19417429994791746,30,False,6
11006,training_phase_2,1,2,42,materials/images/blackG2.png,Gamma,Alpha,False,0.02881729998625815,30,False,6
11006,training_phase_2,1,2,43,materials/images/greenD3.png,Delta,Beta,False,3.050992399919778,30,False,6
11006,training_phase_2,1,2,44,materials/images/redA1.png,Alpha,Alpha,True,0.6230822000652552,30,False,7
11006,training_phase_2,1,2,45,materials/images/blackG6.png,Gamma,Beta,False,0.42634070001076907,30,False,7
11006,training_phase_2,1,2,46,materials/images/blackG5.png,Gamma,Beta,False,0.03771010006312281,30,False,7
11006,training_phase_2,1,2,47,materials/images/greenD4.png,Delta,Beta,False,0.43687890004366636,30,False,7
11006,training_phase_2,1,2,48,materials/images/blueB1.png,Beta,Gamma,False,1.3765283999964595,30,False,7
11007,training_phase_1,2,1,1,materials/images/redA3.png,Alpha,Alpha,True,1.6903755003586411,11,False,1
11007,training_phase_1,2,1,2,materials/images/blueB2.png,Beta,Beta,True,0.6078850999474525,11,False,2
11007,training_phase_1,2,1,3,materials/images/blueB4.png,Beta,Alpha,False,1.7981769004836679,11,False,2
11007,training_phase_1,2,1,4,materials/images/blueB1.png,Beta,Alpha,False,0.2648726999759674,11,False,2
11007,training_phase_1,2,1,5,materials/images/blueB6.png,Beta,Beta,True,0.30593670066446066,11,False,3
11007,training_phase_1,2,1,6,materials/images/redA5.png,Alpha,Alpha,True,0.34495609998703003,11,False,4
11007,training_phase_1,2,1,7,materials/images/redA1.png,Alpha,Alpha,True,0.9305614996701479,11,False,5
11007,training_phase_1,2,1,8,materials/images/redA6.png,Alpha,Beta,False,0.12210000026971102,11,False,5
11007,training_phase_1,2,1,9,materials/images/blueB3.png,Beta,Alpha,False,0.5593301001936197,11,False,5
11007,training_phase_1,2,1,10,materials/images/redA2.png,Alpha,Alpha,True,0.019197000190615654,11,False,6
11007,training_phase_1,2,1,11,materials/images/redA4.png,Alpha,Alpha,True,1.3410059995949268,11,False,7
11007,training_phase_1,2,1,12,materials/images/blueB5.png,Beta,Beta,True,0.20697439927607775,11,False,8
11007,training_phase_1,2,2,13,materials/images/redA2.png,Alpha,Alpha,True,0.3731839004904032,11,False,1
11007,training_phase_1,2,2,14,materials/images/redA5.png,Alpha,Beta,False,0.6750900996848941,11,False,1
11007,training_phase_1,2,2,15,materials/images/blueB1.png,Beta,Alpha,False,0.8170397002249956,11,False,1
11007,training_phase_1,2,2,16,materials/images/blueB4.png,Beta,Alpha,False,0.2555294996127486,11,False,1
11007,training_phase_1,2,2,17,materials/images/redA4.png,Alpha,Alpha,True,0.2293707001954317,11,False,2
11007,training_phase_1,2,2,18,materials/images/blueB5.png,Beta,Beta,True,0.08738039992749691,11,False,3
11007,training_phase_1,2,2,19,materials/images/redA3.png,Alpha,Alpha,True,0.16051959991455078,11,False,4
11007,training_phase_1,2,2,20,materials/images/blueB2.png,Beta,Beta,True,2.5477959997951984,11,False,5
11007,training_phase_1,2,2,21,materials/images/redA1.png,Alpha,Alpha,True,0.4540048995986581,11,False,6
11007,training_phase_1,2,2,22,materials/images/redA6.png,Alpha,Beta,False,0.23300119955092669,11,False,6
11007,training_phase_1,2,2,23,materials/images/blueB3.png,Beta,Beta,True,0.1647313004359603,11,False,7
11007,training_phase_1,2,2,24,materials/images/blueB6.png,Beta,Beta,True,0.09134149923920631,11,False,8
11007,training_phase_1,2,3,25,materials/images/redA2.png,Alpha,Alpha,True,0.1758648995310068,11,False,1
11007,training_phase_1,2,3,26,materials/images/blueB5.png,Beta,Alpha,False,0.023685500025749207,11,False,1
11007,training_phase_1,2,3,27,materials/images/redA6.png,Alpha,Alpha,True,0.5580214997753501,11,False,2
11007,training_phase_1,2,3,28,materials/images/redA4.png,Alpha,Alpha,True,0.5565252993255854,11,False,3
11007,training_phase_1,2,3,29,materials/images/blueB4.png,Beta,Beta,True,0.019083399325609207,11,False,4
11007,training_phase_1,2,3,30,materials/images/redA3.png,Alpha,Alpha,True,0.35949269961565733,11,False,5
11007,training_phase_1,2,3,31,materials/images/redA5.png,Alpha,Alpha,True,0.6582367001101375,11,False,6
11007,training_phase_1,2,3,32,materials/images/redA1.png,Alpha,Alpha,True,0.019030599854886532,11,False,7
11007,training_phase_1,2,3,33,materials/images/blueB6.png,Beta,Beta,True,0.01956159994006157,11,False,8
11007,training_phase_1,2,3,34,materials/images/blueB1.png,Beta,Beta,True,0.06121950037777424,11,False,9
11007,training_phase_1,2,3,35,materials/images/blueB3.png,Beta,Beta,True,0.01884370017796755,11,False,10
11007,training_phase_1,2,3,36,materials/images/blueB2.png,Beta,Beta,True,0.9011264005675912,11,True,11
pnum,phase_id,condition,block_data,trial_num,stim,correct_category,response,hit,rt,criterian,met_criterian,num_correct_in_block
11007,test_phase,2,1,1,materials/images/yGen2.png,test,Beta,gen,0.7376506002619863,1,True,1
11007,test_phase,2,1,2,materials/images/redA6.png,Alpha,Beta,gen,0.786243999376893,1,True,2
11007,test_phase,2,1,3,materials/images/redA4.png,Alpha,Alpha,gen,0.024089300073683262,1,True,3
11007,test_phase,2,1,4,materials/images/blueB6.png,Beta,Beta,gen,1.1711667003110051,1,True,4
11007,test_phase,2,1,5,materials/images/yGen1.png,test,Alpha,gen,0.4940181002020836,1,True,5
11007,test_phase,2,1,6,materials/images/blueB5.png,Beta,Beta,gen,0.2686638003215194,1,True,6
11007,test_phase,2,1,7,materials/images/blueB4.png,Beta,Beta,gen,0.21075000055134296,1,True,7
11007,test_phase,2,1,8,materials/images/redA5.png,Alpha,Alpha,gen,0.22703230008482933,1,True,8
11007,test_phase,2,1,9,materials/images/redA1.png,Alpha,Alpha,gen,0.02384909987449646,1,True,9
11007,test_phase,2,1,10,materials/images/blueB2.png,Beta,Beta,gen,0.01892110053449869,1,True,10
11007,test_phase,2,1,11,materials/images/redA2.png,Alpha,Alpha,gen,0.4415816003456712,1,True,11
11007,test_phase,2,1,12,materials/images/blueB3.png,Beta,Beta,gen,0.02431229967623949,1,True,12
11007,test_phase,2,1,13,materials/images/yGen5.png,test,Beta,gen,0.8413541996851563,1,True,13
11007,test_phase,2,1,14,materials/images/redA3.png,Alpha,Alpha,gen,0.4181367000564933,1,True,14
11007,test_phase,2,1,15,materials/images/yGen4.png,test,Beta,gen,0.023581999354064465,1,True,15
11007,test_phase,2,1,16,materials/images/blueB1.png,Beta,Beta,gen,0.22053700033575296,1,True,16
11007,test_phase,2,1,17,materials/images/yGen3.png,test,Beta,gen,0.27266940008848906,1,True,17
pnum,phase_id,condition,block_data,trial_num,stim,correct_category,response,hit,rt,criterian,met_criterian,num_correct_in_block
11007,training_phase_2,2,1,1,materials/images/blueB3.png,Beta,Beta,True,0.4913062993437052,30,False,1
11007,training_phase_2,2,1,2,materials/images/blueB1.png,Beta,Beta,True,0.023871099576354027,30,False,2
11007,training_phase_2,2,1,3,materials/images/redA5.png,Alpha,Beta,False,0.5589719992130995,30,False,2
11007,training_phase_2,2,1,4,materials/images/blackG3.png,Gamma,Beta,False,0.4196414006873965,30,False,2
11007,training_phase_2,2,1,5,materials/images/redA3.png,Alpha,Alpha,True,0.2836576998233795,30,False,3
11007,training_phase_2,2,1,6,materials/images/blackG1.png,Gamma,Gamma,True,0.2542020007967949,30,False,4
11007,training_phase_2,2,1,7,materials/images/redA1.png,Alpha,Alpha,True,0.018375600688159466,30,False,5
11007,training_phase_2,2,1,8,materials/images/redA2.png,Alpha,Alpha,True,0.023097599856555462,30,False,6
11007,training_phase_2,2,1,9,materials/images/redA6.png,Alpha,Gamma,False,0.13209430035203695,30,False,6
11007,training_phase_2,2,1,10,materials/images/blackG4.png,Gamma,Gamma,True,0.3543573999777436,30,False,7
11007,training_phase_2,2,1,11,materials/images/greenD1.png,Delta,Gamma,False,0.26584559958428144,30,False,7
11007,training_phase_2,2,1,12,materials/images/redA4.png,Alpha,Gamma,False,0.5903511997312307,30,False,7
11007,training_phase_2,2,1,13,materials/images/blueB5.png,Beta,Gamma,False,0.787240999750793,30,False,7
11007,training_phase_2,2,1,14,materials/images/greenD3.png,Delta,Beta,False,0.5083039999008179,30,False,7
11007,training_phase_2,2,1,15,materials/images/blackG5.png,Gamma,Gamma,True,0.5326866004616022,30,False,8
11007,training_phase_2,2,1,16,materials/images/blackG2.png,Gamma,Delta,False,0.34974309988319874,30,False,8
11007,training_phase_2,2,1,17,materials/images/greenD5.png,Delta,Delta,True,0.019348199479281902,30,False,9
11007,training_phase_2,2,1,18,materials/images/greenD4.png,Delta,Delta,True,0.49379089940339327,30,False,10
11007,training_phase_2,2,1,19,materials/images/greenD2.png,Delta,Delta,True,0.5211175000295043,30,False,11
11007,training_phase_2,2,1,20,materials/images/blackG6.png,Gamma,Gamma,True,1.4313182001933455,30,False,12
11007,training_phase_2,2,1,21,materials/images/greenD6.png,Delta,Beta,False,0.9253123998641968,30,False,12
11007,training_phase_2,2,1,22,materials/images/blueB4.png,Beta,Beta,True,0.5198995005339384,30,False,13
11007,training_phase_2,2,1,23,materials/images/blueB6.png,Beta,Beta,True,1.7275112997740507,30,False,14
11007,training_phase_2,2,1,24,materials/images/blueB2.png,Beta,Beta,True,0.6499116998165846,30,False,15
11007,training_phase_2,2,2,25,materials/images/blackG4.png,Gamma,Gamma,True,1.1772433994337916,30,False,1
11007,training_phase_2,2,2,26,materials/images/blueB5.png,Beta,Gamma,False,0.11548720020800829,30,False,1
11007,training_phase_2,2,2,27,materials/images/blueB6.png,Beta,Beta,True,1.3436682000756264,30,False,2
11007,training_phase_2,2,2,28,materials/images/redA6.png,Alpha,Alpha,True,1.2187120001763105,30,False,3
11007,training_phase_2,2,2,29,materials/images/greenD3.png,Delta,Delta,True,1.2369370991364121,30,False,4
11007,training_phase_2,2,2,30,materials/images/redA3.png,Alpha,Alpha,True,0.4205050002783537,30,False,5
11007,training_phase_2,2,2,31,materials/images/redA4.png,Alpha,Alpha,True,0.3403773996978998,30,False,6
11007,training_phase_2,2,2,32,materials/images/blueB4.png,Beta,Gamma,False,2.3112366003915668,30,False,6
11007,training_phase_2,2,2,33,materials/images/blackG5.png,Gamma,Gamma,True,0.03605919983237982,30,False,7
11007,training_phase_2,2,2,34,materials/images/blackG1.png,Gamma,Delta,False,1.369263700209558,30,False,7
11007,training_phase_2,2,2,35,materials/images/greenD1.png,Delta,Delta,True,0.23973899986594915,30,False,8
11007,training_phase_2,2,2,36,materials/images/greenD5.png,Delta,Delta,True,0.07887299917638302,30,False,9
11007,training_phase_2,2,2,37,materials/images/redA2.png,Alpha,Alpha,True,0.8494655005633831,30,False,10
11007,training_phase_2,2,2,38,materials/images/greenD4.png,Delta,Delta,True,0.25237909983843565,30,False,11
11007,training_phase_2,2,2,39,materials/images/blackG3.png,Gamma,Beta,False,1.0824037995189428,30,False,11
11007,training_phase_2,2,2,40,materials/images/greenD6.png,Delta,Delta,True,0.23947899974882603,30,False,12
11007,training_phase_2,2,2,41,materials/images/blackG2.png,Gamma,Gamma,True,0.38658100087195635,30,False,13
11007,training_phase_2,2,2,42,materials/images/redA5.png,Alpha,Beta,False,0.8432159991934896,30,False,13
11007,training_phase_2,2,2,43,materials/images/redA1.png,Alpha,Alpha,True,0.10497179999947548,30,False,14
11007,training_phase_2,2,2,44,materials/images/blueB3.png,Beta,Delta,False,3.7389650996774435,30,False,14
11007,training_phase_2,2,2,45,materials/images/blueB2.png,Beta,Beta,True,0.21676199976354837,30,False,15
11007,training_phase_2,2,2,46,materials/images/blueB1.png,Beta,Beta,True,0.3757468005642295,30,False,16
11007,training_phase_2,2,2,47,materials/images/blackG6.png,Gamma,Gamma,True,0.3694026004523039,30,False,17
11007,training_phase_2,2,2,48,materials/images/greenD2.png,Delta,Beta,False,0.820596500299871,30,False,17
11008,training_phase_1,1,1,1,materials/images/redA2.png,Alpha,Alpha,True,1.5336673995479941,11,False,1
11008,training_phase_1,1,1,2,materials/images/redA1.png,Alpha,Alpha,True,1.3831177996471524,11,False,2
11008,training_phase_1,1,1,3,materials/images/redA6.png,Alpha,Beta,False,0.2523893993347883,11,False,2
11008,training_phase_1,1,1,4,materials/images/blueB2.png,Beta,Alpha,False,0.3481977004557848,11,False,2
11008,training_phase_1,1,1,5,materials/images/redA3.png,Alpha,Alpha,True,1.3120430000126362,11,False,3
11008,training_phase_1,1,1,6,materials/images/blueB4.png,Beta,Beta,True,0.023127900436520576,11,False,4
11008,training_phase_1,1,1,7,materials/images/redA5.png,Alpha,Alpha,True,0.5402480000630021,11,False,5
11008,training_phase_1,1,1,8,materials/images/blueB1.png,Beta,Beta,True,0.20301220007240772,11,False,6
11008,training_phase_1,1,1,9,materials/images/blueB5.png,Beta,Beta,True,0.022549000568687916,11,False,7
11008,training_phase_1,1,1,10,materials/images/blueB6.png,Beta,Alpha,False,0.017880999483168125,11,False,7
11008,training_phase_1,1,1,11,materials/images/redA4.png,Alpha,Alpha,True,0.06860930006951094,11,False,8
11008,training_phase_1,1,1,12,materials/images/blueB3.png,Beta,Alpha,False,0.022939099930226803,11,False,8
11008,training_phase_1,1,2,13,materials/images/redA1.png,Alpha,Beta,False,0.16405020002275705,11,False,0
11008,training_phase_1,1,2,14,materials/images/redA6.png,Alpha,Beta,False,1.3344665998592973,11,False,0
11008,training_phase_1,1,2,15,materials/images/redA2.png,Alpha,Alpha,True,0.916321599856019,11,False,1
11008,training_phase_1,1,2,16,materials/images/blueB3.png,Beta,Beta,True,0.46001819986850023,11,False,2
11008,training_phase_1,1,2,17,materials/images/redA5.png,Alpha,Beta,False,0.2884833002462983,11,False,2
11008,training_phase_1,1,2,18,materials/images/blueB2.png,Beta,Beta,True,0.3411491997539997,11,False,3
11008,training_phase_1,1,2,19,materials/images/blueB5.png,Beta,Alpha,False,0.659273499622941,11,False,3
11008,training_phase_1,1,2,20,materials/images/blueB4.png,Beta,Alpha,False,0.1692546997219324,11,False,3
11008,training_phase_1,1,2,21,materials/images/blueB6.png,Beta,Beta,True,0.25199910067021847,11,False,4
11008,training_phase_1,1,2,22,materials/images/redA3.png,Alpha,Alpha,True,0.018373499624431133,11,False,5
11008,training_phase_1,1,2,23,materials/images/blueB1.png,Beta,Beta,True,1.3654346000403166,11,False,6
11008,training_phase_1,1,2,24,materials/images/redA4.png,Alpha,Alpha,True,0.042761100456118584,11,False,7
11008,training_phase_1,1,3,25,materials/images/blueB6.png,Beta,Beta,True,0.5358645999804139,11,False,1
11008,training_phase_1,1,3,26,materials/images/blueB3.png,Beta,Alpha,False,0.3654048005118966,11,False,1
11008,training_phase_1,1,3,27,materials/images/redA4.png,Alpha,Alpha,True,0.31256259977817535,11,False,2
11008,training_phase_1,1,3,28,materials/images/redA1.png,Alpha,Alpha,True,0.7328640995547175,11,False,3
11008,training_phase_1,1,3,29,materials/images/blueB2.png,Beta,Beta,True,0.02328450046479702,11,False,4
11008,training_phase_1,1,3,30,materials/images/redA5.png,Alpha,Alpha,True,0.018624799326062202,11,False,5
11008,training_phase_1,1,3,31,materials/images/blueB4.png,Beta,Alpha,False,0.02292099967598915,11,False,5
11008,training_phase_1,1,3,32,materials/images/blueB1.png,Beta,Beta,True,0.10631779953837395,11,False,6
11008,training_phase_1,1,3,33,materials/images/blueB5.png,Beta,Beta,True,0.14901299960911274,11,False,7
11008,training_phase_1,1,3,34,materials/images/redA2.png,Alpha,Alpha,True,0.367756400257349,11,False,8
11008,training_phase_1,1,3,35,materials/images/redA6.png,Alpha,Beta,False,0.13749819993972778,11,False,8
11008,training_phase_1,1,3,36,materials/images/redA3.png,Alpha,Alpha,True,0.023123400285840034,11,False,9
11008,training_phase_1,1,4,37,materials/images/blueB6.png,Beta,Beta,True,0.1551435999572277,11,False,1
11008,training_phase_1,1,4,38,materials/images/blueB3.png,Beta,Beta,True,0.018328599631786346,11,False,2
11008,training_phase_1,1,4,39,materials/images/blueB1.png,Beta,Beta,True,0.3078634003177285,11,False,3
11008,training_phase_1,1,4,40,materials/images/redA2.png,Alpha,Alpha,True,0.018977300263941288,11,False,4
11008,training_phase_1,1,4,41,materials/images/blueB4.png,Beta,Beta,True,0.5415906999260187,11,False,5
11008,training_phase_1,1,4,42,materials/images/redA3.png,Alpha,Alpha,True,0.023096900433301926,11,False,6
11008,training_phase_1,1,4,43,materials/images/redA6.png,Alpha,Beta,False,0.22127170022577047,11,False,6
11008,training_phase_1,1,4,44,materials/images/redA1.png,Alpha,Alpha,True,0.14467010088264942,11,False,7
11008,training_phase_1,1,4,45,materials/images/redA4.png,Alpha,Beta,False,0.19571350049227476,11,False,7
11008,training_phase_1,1,4,46,materials/images/blueB5.png,Beta,Beta,True,0.22142650000751019,11,False,8
11008,training_phase_1,1,4,47,materials/images/redA5.png,Alpha,Alpha,True,0.15077800024300814,11,False,9
11008,training_phase_1,1,4,48,materials/images/blueB2.png,Beta,Beta,True,0.06780409999191761,11,False,10
11008,training_phase_1,1,5,49,materials/images/blueB1.png,Beta,Beta,True,0.024014100432395935,11,False,1
11008,training_phase_1,1,5,50,materials/images/redA6.png,Alpha,Alpha,True,0.6483335997909307,11,False,2
11008,training_phase_1,1,5,51,materials/images/blueB6.png,Beta,Beta,True,0.20734009984880686,11,False,3
11008,training_phase_1,1,5,52,materials/images/redA2.png,Alpha,Alpha,True,0.24041759967803955,11,False,4
11008,training_phase_1,1,5,53,materials/images/redA4.png,Alpha,Beta,False,1.8126039998605847,11,False,4
11008,training_phase_1,1,5,54,materials/images/blueB5.png,Beta,Beta,True,0.4680391000583768,11,False,5
11008,training_phase_1,1,5,55,materials/images/blueB3.png,Beta,Beta,True,0.17250260058790445,11,False,6
11008,training_phase_1,1,5,56,materials/images/redA5.png,Alpha,Beta,False,0.018361499533057213,11,False,6
11008,training_phase_1,1,5,57,materials/images/blueB2.png,Beta,Beta,True,0.022796900011599064,11,False,7
11008,training_phase_1,1,5,58,materials/images/redA3.png,Alpha,Alpha,True,0.851167400367558,11,False,8
11008,training_phase_1,1,5,59,materials/images/redA1.png,Alpha,Alpha,True,0.16730580013245344,11,False,9
11008,training_phase_1,1,5,60,materials/images/blueB4.png,Beta,Beta,True,0.3284008000046015,11,False,10
11008,training_phase_1,1,6,61,materials/images/redA5.png,Alpha,Alpha,True,0.6576546998694539,11,False,1
11008,training_phase_1,1,6,62,materials/images/blueB6.png,Beta,Beta,True,0.01855239924043417,11,False,2
11008,training_phase_1,1,6,63,materials/images/blueB4.png,Beta,Beta,True,0.018668100237846375,11,False,3
11008,training_phase_1,1,6,64,materials/images/blueB1.png,Beta,Beta,True,0.023890499956905842,11,False,4
11008,training_phase_1,1,6,65,materials/images/blueB3.png,Beta,Beta,True,0.04308049939572811,11,False,5
11008,training_phase_1,1,6,66,materials/images/redA4.png,Alpha,Alpha,True,0.053752100095152855,11,False,6
11008,training_phase_1,1,6,67,materials/images/blueB5.png,Beta,Beta,True,0.3964708000421524,11,False,7
11008,training_phase_1,1,6,68,materials/images/redA3.png,Alpha,Beta,False,0.018173200078308582,11,False,7
11008,training_phase_1,1,6,69,materials/images/redA2.png,Alpha,Beta,False,0.12458479963243008,11,False,7
11008,training_phase_1,1,6,70,materials/images/blueB2.png,Beta,Beta,True,0.17660399992018938,11,False,8
11008,training_phase_1,1,6,71,materials/images/redA6.png,Alpha,Alpha,True,0.18811060022562742,11,False,9
11008,training_phase_1,1,6,72,materials/images/redA1.png,Alpha,Alpha,True,0.02592530008405447,11,False,10
11008,training_phase_1,1,7,73,materials/images/blueB6.png,Beta,Beta,True,0.5684156008064747,11,False,1
11008,training_phase_1,1,7,74,materials/images/blueB4.png,Beta,Alpha,False,0.017995299771428108,11,False,1
11008,training_phase_1,1,7,75,materials/images/redA3.png,Alpha,Alpha,True,0.07220420055091381,11,False,2
11008,training_phase_1,1,7,76,materials/images/redA6.png,Alpha,Beta,False,0.19106620084494352,11,False,2
11008,training_phase_1,1,7,77,materials/images/blueB1.png,Beta,Beta,True,0.02284680027514696,11,False,3
11008,training_phase_1,1,7,78,materials/images/blueB2.png,Beta,Beta,True,0.017937100492417812,11,False,4
11008,training_phase_1,1,7,79,materials/images/blueB5.png,Beta,Alpha,False,0.01875630021095276,11,False,4
11008,training_phase_1,1,7,80,materials/images/redA5.png,Alpha,Alpha,True,0.022513999603688717,11,False,5
11008,training_phase_1,1,7,81,materials/images/redA4.png,Alpha,Alpha,True,0.33261279948055744,11,False,6
11008,training_phase_1,1,7,82,materials/images/redA2.png,Alpha,Beta,False,0.40935570001602173,11,False,6
11008,training_phase_1,1,7,83,materials/images/redA1.png,Alpha,Alpha,True,0.10266480036079884,11,False,7
11008,training_phase_1,1,7,84,materials/images/blueB3.png,Beta,Beta,True,0.6123879002407193,11,False,8
11008,training_phase_1,1,8,85,materials/images/redA1.png,Alpha,Alpha,True,0.225632400251925,11,False,1
11008,training_phase_1,1,8,86,materials/images/blueB6.png,Beta,Beta,True,0.02359319943934679,11,False,2
11008,training_phase_1,1,8,87,materials/images/blueB3.png,Beta,Beta,True,0.972843000665307,11,False,3
11008,training_phase_1,1,8,88,materials/images/blueB2.png,Beta,Beta,True,1.1294769002124667,11,False,4
11008,training_phase_1,1,8,89,materials/images/redA5.png,Alpha,Alpha,True,1.4649990992620587,11,False,5
11008,training_phase_1,1,8,90,materials/images/blueB1.png,Beta,Beta,True,0.9606266003102064,11,False,6
11008,training_phase_1,1,8,91,materials/images/redA2.png,Alpha,Alpha,True,0.018227900378406048,11,False,7
11008,training_phase_1,1,8,92,materials/images/redA4.png,Alpha,Alpha,True,0.2804512996226549,11,False,8
11008,training_phase_1,1,8,93,materials/images/redA3.png,Alpha,Alpha,True,0.5264528999105096,11,False,9
11008,training_phase_1,1,8,94,materials/images/blueB4.png,Beta,Beta,True,0.7342034000903368,11,False,10
11008,training_phase_1,1,8,95,materials/images/redA6.png,Alpha,Beta,False,0.04209449980407953,11,False,10
11008,training_phase_1,1,8,96,materials/images/blueB5.png,Beta,Beta,True,0.022572600282728672,11,True,11
pnum,phase_id,condition,block_data,trial_num,stim,correct_category,response,hit,rt,criterian,met_criterian,num_correct_in_block
11008,test_phase,1,1,1,materials/images/blueB6.png,Beta,Beta,gen,0.02275830041617155,1,True,1
11008,test_phase,1,1,2,materials/images/yGen4.png,test,Beta,gen,0.9036452006548643,1,True,2
11008,test_phase,1,1,3,materials/images/redA6.png,Alpha,Alpha,gen,0.7500667003914714,1,True,3
11008,test_phase,1,1,4,materials/images/redA5.png,Alpha,Alpha,gen,1.4773925002664328,1,True,4
11008,test_phase,1,1,5,materials/images/blueB3.png,Beta,Beta,gen,0.02306120004504919,1,True,5
11008,test_phase,1,1,6,materials/images/redA4.png,Alpha,Beta,gen,0.968597000464797,1,True,6
11008,test_phase,1,1,7,materials/images/yGen3.png,test,Beta,gen,0.4737147996202111,1,True,7
11008,test_phase,1,1,8,materials/images/blueB5.png,Beta,Beta,gen,0.018551699817180634,1,True,8
11008,test_phase,1,1,9,materials/images/blueB4.png,Beta,Alpha,gen,0.3869837997481227,1,True,9
11008,test_phase,1,1,10,materials/images/yGen2.png,test,Alpha,gen,0.494386600330472,1,True,10
11008,test_phase,1,1,11,materials/images/blueB1.png,Beta,Beta,gen,0.029788699932396412,1,True,11
11008,test_phase,1,1,12,materials/images/redA1.png,Alpha,Alpha,gen,2.1622179998084903,1,True,12
11008,test_phase,1,1,13,materials/images/redA3.png,Alpha,Alpha,gen,0.5438292995095253,1,True,13
11008,test_phase,1,1,14,materials/images/yGen5.png,test,Beta,gen,0.2766108000651002,1,True,14
11008,test_phase,1,1,15,materials/images/yGen1.png,test,Beta,gen,0.07728049997240305,1,True,15
11008,test_phase,1,1,16,materials/images/blueB2.png,Beta,Beta,gen,1.889088099822402,1,True,16
11008,test_phase,1,1,17,materials/images/redA2.png,Alpha,Alpha,gen,0.018125600181519985,1,True,17
pnum,phase_id,condition,block_data,trial_num,stim,correct_category,response,hit,rt,criterian,met_criterian,num_correct_in_block
11008,training_phase_2,1,1,1,materials/images/blackG3.png,Gamma,Alpha,False,2.1669013993814588,30,False,0
11008,training_phase_2,1,1,2,materials/images/redA1.png,Alpha,Delta,False,0.4354261001572013,30,False,0
11008,training_phase_2,1,1,3,materials/images/blueB5.png,Beta,Beta,True,0.022718099877238274,30,False,1
11008,training_phase_2,1,1,4,materials/images/blackG1.png,Gamma,Delta,False,0.6931493002921343,30,False,1
11008,training_phase_2,1,1,5,materials/images/blueB3.png,Beta,Beta,True,1.362592300400138,30,False,2
11008,training_phase_2,1,1,6,materials/images/blueB2.png,Beta,Gamma,False,0.022961199283599854,30,False,2
11008,training_phase_2,1,1,7,materials/images/greenD5.png,Delta,Delta,True,0.5409567002207041,30,False,3
11008,training_phase_2,1,1,8,materials/images/blueB4.png,Beta,Delta,False,0.018876099959015846,30,False,3
11008,training_phase_2,1,1,9,materials/images/blackG2.png,Gamma,Beta,False,0.3019372997805476,30,False,3
11008,training_phase_2,1,1,10,materials/images/greenD1.png,Delta,Beta,False,0.5467419000342488,30,False,3
11008,training_phase_2,1,1,11,materials/images/greenD3.png,Delta,Delta,True,0.024047999642789364,30,False,4
11008,training_phase_2,1,1,12,materials/images/redA5.png,Alpha,Gamma,False,0.5380994994193316,30,False,4
11008,training_phase_2,1,1,13,materials/images/redA2.png,Alpha,Alpha,True,0.5084873996675014,30,False,5
11008,training_phase_2,1,1,14,materials/images/greenD4.png,Delta,Beta,False,0.26074269972741604,30,False,5
11008,training_phase_2,1,1,15,materials/images/redA6.png,Alpha,Beta,False,0.2368275998160243,30,False,5
11008,training_phase_2,1,1,16,materials/images/blackG5.png,Gamma,Delta,False,0.02400080021470785,30,False,5
11008,training_phase_2,1,1,17,materials/images/blueB6.png,Beta,Gamma,False,0.2437084000557661,30,False,5
11008,training_phase_2,1,1,18,materials/images/greenD6.png,Delta,Beta,False,0.12796919979155064,30,False,5
11008,training_phase_2,1,1,19,materials/images/blackG4.png,Gamma,Gamma,True,0.5594613999128342,30,False,6
11008,training_phase_2,1,1,20,materials/images/redA4.png,Alpha,Beta,False,0.018369199708104134,30,False,6
11008,training_phase_2,1,1,21,materials/images/greenD2.png,Delta,Delta,True,0.023034200072288513,30,False,7
11008,training_phase_2,1,1,22,materials/images/blackG6.png,Gamma,Gamma,True,0.14851699955761433,30,False,8
11008,training_phase_2,1,1,23,materials/images/redA3.png,Alpha,Alpha,True,1.075998400337994,30,False,9
11008,training_phase_2,1,1,24,materials/images/blueB1.png,Beta,Beta,True,1.2873075995594263,30,False,10
11008,training_phase_2,1,2,25,materials/images/blueB4.png,Beta,Alpha,False,0.31288859993219376,30,False,0
11008,training_phase_2,1,2,26,materials/images/blackG6.png,Gamma,Delta,False,0.703303400427103,30,False,0
11008,training_phase_2,1,2,27,materials/images/redA1.png,Alpha,Alpha,True,0.3114233994856477,30,False,1
11008,training_phase_2,1,2,28,materials/images/greenD4.png,Delta,Delta,True,0.4208708005025983,30,False,2
11008,training_phase_2,1,2,29,materials/images/blueB6.png,Beta,Beta,True,0.29147010017186403,30,False,3
11008,training_phase_2,1,2,30,materials/images/blackG5.png,Gamma,Gamma,True,1.5996720995754004,30,False,4
11008,training_phase_2,1,2,31,materials/images/redA5.png,Alpha,Alpha,True,0.7729254998266697,30,False,5
11008,training_phase_2,1,2,32,materials/images/blackG1.png,Gamma,Beta,False,1.6064050998538733,30,False,5
11008,training_phase_2,1,2,33,materials/images/greenD5.png,Delta,Delta,True,0.0491700004786253,30,False,6
11008,training_phase_2,1,2,34,materials/images/blueB3.png,Beta,Gamma,False,0.5409600995481014,30,False,6
11008,training_phase_2,1,2,35,materials/images/blueB5.png,Beta,Beta,True,1.3973061004653573,30,False,7
11008,training_phase_2,1,2,36,materials/images/greenD3.png,Delta,Delta,True,0.3903333004564047,30,False,8
11008,training_phase_2,1,2,37,materials/images/greenD6.png,Delta,Delta,True,0.36811650078743696,30,False,9
11008,training_phase_2,1,2,38,materials/images/greenD2.png,Delta,Delta,True,0.23727549985051155,30,False,10
11008,training_phase_2,1,2,39,materials/images/blueB1.png,Beta,Beta,True,0.34642690047621727,30,False,11
11008,training_phase_2,1,2,40,materials/images/redA2.png,Alpha,Alpha,True,0.0653055002912879,30,False,12
11008,training_phase_2,1,2,41,materials/images/blackG3.png,Gamma,Gamma,True,0.09438899997621775,30,False,13
11008,training_phase_2,1,2,42,materials/images/redA4.png,Alpha,Alpha,True,0.5210012998431921,30,False,14
11008,training_phase_2,1,2,43,materials/images/blackG4.png,Gamma,Gamma,True,0.26652449928224087,30,False,15
11008,training_phase_2,1,2,44,materials/images/greenD1.png,Delta,Beta,False,0.45729050040245056,30,False,15
11008,training_phase_2,1,2,45,materials/images/blueB2.png,Beta,Beta,True,2.21864299941808,30,False,16
11008,training_phase_2,1,2,46,materials/images/redA3.png,Alpha,Alpha,True,0.03911319933831692,30,False,17
11008,training_phase_2,1,2,47,materials/images/redA6.png,Alpha,Delta,False,0.2618459006771445,30,False,17
11008,training_phase_2,1,2,48,materials/images/blackG2.png,Gamma,Beta,False,0.20904400013387203,30,False,17
11009,training_phase_1,2,1,1,materials/images/blueB5.png,Beta,Beta,True,4.430461099953391,11,False,1
11009,training_phase_1,2,1,2,materials/images/redA4.png,Alpha,Beta,False,1.445486000040546,11,False,1
11009,training_phase_1,2,1,3,materials/images/redA6.png,Alpha,Beta,False,4.926541399909183,11,False,1
11009,training_phase_1,2,1,4,materials/images/blueB4.png,Beta,Beta,True,1.9456729999510571,11,False,2
11009,training_phase_1,2,1,5,materials/images/redA2.png,Alpha,Alpha,True,2.526711200014688,11,False,3
11009,training_phase_1,2,1,6,materials/images/blueB2.png,Beta,Alpha,False,0.3710990999825299,11,False,3
11009,training_phase_1,2,1,7,materials/images/blueB1.png,Beta,Alpha,False,0.35679679992608726,11,False,3
11009,training_phase_1,2,1,8,materials/images/redA5.png,Alpha,Beta,False,0.8340518999611959,11,False,3
11009,training_phase_1,2,1,9,materials/images/redA1.png,Alpha,Beta,False,0.3923511999892071,11,False,3
11009,training_phase_1,2,1,10,materials/images/redA3.png,Alpha,Alpha,True,1.5800838000141084,11,False,4
11009,training_phase_1,2,1,11,materials/images/blueB3.png,Beta,Alpha,False,1.048936599981971,11,False,4
11009,training_phase_1,2,1,12,materials/images/blueB6.png,Beta,Alpha,False,1.4616126000182703,11,False,4
11009,training_phase_1,2,2,13,materials/images/blueB2.png,Beta,Beta,True,0.08562679996248335,11,False,1
11009,training_phase_1,2,2,14,materials/images/redA2.png,Alpha,Beta,False,1.5170176000101492,11,False,1
11009,training_phase_1,2,2,15,materials/images/redA5.png,Alpha,Alpha,True,0.576303799985908,11,False,2
11009,training_phase_1,2,2,16,materials/images/redA3.png,Alpha,Beta,False,5.986189599963836,11,False,2
11009,training_phase_1,2,2,17,materials/images/blueB4.png,Beta,Beta,True,0.584698999999091,11,False,3
11009,training_phase_1,2,2,18,materials/images/redA1.png,Alpha,Beta,False,7.374154899967834,11,False,3
11009,training_phase_1,2,2,19,materials/images/blueB5.png,Beta,Beta,True,2.894137499970384,11,False,4
11009,training_phase_1,2,2,20,materials/images/redA4.png,Alpha,Alpha,True,0.13602350000292063,11,False,5
11009,training_phase_1,2,2,21,materials/images/blueB3.png,Beta,Beta,True,1.1760587999597192,11,False,6
11009,training_phase_1,2,2,22,materials/images/blueB1.png,Beta,Alpha,False,1.2277247000019997,11,False,6
11009,training_phase_1,2,2,23,materials/images/redA6.png,Alpha,Alpha,True,0.17452040000353009,11,False,7
11009,training_phase_1,2,2,24,materials/images/blueB6.png,Beta,Alpha,False,2.853872799896635,11,False,7
11009,training_phase_1,2,3,25,materials/images/blueB4.png,Beta,Alpha,False,1.1462676000082865,11,False,0
11009,training_phase_1,2,3,26,materials/images/blueB5.png,Beta,Beta,True,0.5745160999940708,11,False,1
11009,training_phase_1,2,3,27,materials/images/blueB3.png,Beta,Beta,True,0.2240060999756679,11,False,2
11009,training_phase_1,2,3,28,materials/images/blueB2.png,Beta,Alpha,False,2.749280199990608,11,False,2
11009,training_phase_1,2,3,29,materials/images/redA3.png,Alpha,Beta,False,0.02390689996536821,11,False,2
11009,training_phase_1,2,3,30,materials/images/redA5.png,Alpha,Alpha,True,0.02638269995804876,11,False,3
11009,training_phase_1,2,3,31,materials/images/redA4.png,Alpha,Alpha,True,0.025684399995952845,11,False,4
11009,training_phase_1,2,3,32,materials/images/redA1.png,Alpha,Beta,False,1.7428406999679282,11,False,4
11009,training_phase_1,2,3,33,materials/images/blueB1.png,Beta,Alpha,False,0.10494599991943687,11,False,4
11009,training_phase_1,2,3,34,materials/images/redA2.png,Alpha,Alpha,True,0.018723499961197376,11,False,5
11009,training_phase_1,2,3,35,materials/images/redA6.png,Alpha,Alpha,True,1.697581399930641,11,False,6
11009,training_phase_1,2,3,36,materials/images/blueB6.png,Beta,Alpha,False,0.09568789997138083,11,False,6
11009,training_phase_1,2,4,37,materials/images/redA2.png,Alpha,Alpha,True,0.02280330006033182,11,False,1
11009,training_phase_1,2,4,38,materials/images/redA5.png,Alpha,Alpha,True,0.6754342999774963,11,False,2
11009,training_phase_1,2,4,39,materials/images/blueB6.png,Beta,Alpha,False,1.6302899000002071,11,False,2
11009,training_phase_1,2,4,40,materials/images/blueB2.png,Beta,Alpha,False,0.26637319999281317,11,False,2
11009,training_phase_1,2,4,41,materials/images/blueB1.png,Beta,Alpha,False,0.990086100064218,11,False,2
11009,training_phase_1,2,4,42,materials/images/blueB3.png,Beta,Beta,True,0.7895754999481142,11,False,3
11009,training_phase_1,2,4,43,materials/images/redA6.png,Alpha,Beta,False,1.64092660008464,11,False,3
11009,training_phase_1,2,4,44,materials/images/redA3.png,Alpha,Alpha,True,6.076148999971338,11,False,4
11009,training_phase_1,2,4,45,materials/images/blueB5.png,Beta,Beta,True,4.859049300081097,11,False,5
11009,training_phase_1,2,4,46,materials/images/blueB4.png,Beta,Beta,True,0.036321000079624355,11,False,6
11009,training_phase_1,2,4,47,materials/images/redA1.png,Alpha,Alpha,True,1.0773234000662342,11,False,7
11009,training_phase_1,2,4,48,materials/images/redA4.png,Alpha,Alpha,True,0.408920899964869,11,False,8
11009,training_phase_1,2,5,49,materials/images/redA1.png,Alpha,Alpha,True,5.026333099929616,11,False,1
11009,training_phase_1,2,5,50,materials/images/redA4.png,Alpha,Alpha,True,12.470087700057775,11,False,2
11009,training_phase_1,2,5,51,materials/images/blueB3.png,Beta,Beta,True,1.630724300048314,11,False,3
11009,training_phase_1,2,5,52,materials/images/redA5.png,Alpha,Alpha,True,0.39156160003039986,11,False,4
11009,training_phase_1,2,5,53,materials/images/blueB1.png,Beta,Beta,True,0.3540264000184834,11,False,5
11009,training_phase_1,2,5,54,materials/images/blueB6.png,Beta,Alpha,False,0.39508599997498095,11,False,5
11009,training_phase_1,2,5,55,materials/images/blueB4.png,Beta,Alpha,False,0.02358559996355325,11,False,5
11009,training_phase_1,2,5,56,materials/images/blueB5.png,Beta,Beta,True,0.023170199943706393,11,False,6
11009,training_phase_1,2,5,57,materials/images/redA2.png,Alpha,Alpha,True,7.065118100028485,11,False,7
11009,training_phase_1,2,5,58,materials/images/blueB2.png,Beta,Alpha,False,2.549469199962914,11,False,7
11009,training_phase_1,2,5,59,materials/images/redA3.png,Alpha,Alpha,True,0.7723328999709338,11,False,8
11009,training_phase_1,2,5,60,materials/images/redA6.png,Alpha,Alpha,True,0.5981762000592425,11,False,9
11009,training_phase_1,2,6,61,materials/images/redA5.png,Alpha,Alpha,True,0.08014749991707504,11,False,1
11009,training_phase_1,2,6,62,materials/images/redA4.png,Alpha,Alpha,True,0.01824419992044568,11,False,2
11009,training_phase_1,2,6,63,materials/images/redA6.png,Alpha,Alpha,True,1.1011196000035852,11,False,3
11009,training_phase_1,2,6,64,materials/images/redA2.png,Alpha,Alpha,True,0.9368172999238595,11,False,4
11009,training_phase_1,2,6,65,materials/images/blueB1.png,Beta,Beta,True,0.6928194999927655,11,False,5
11009,training_phase_1,2,6,66,materials/images/redA1.png,Alpha,Alpha,True,0.3235114000272006,11,False,6
11009,training_phase_1,2,6,67,materials/images/blueB6.png,Beta,Beta,True,0.6347950000781566,11,False,7
11009,training_phase_1,2,6,68,materials/images/blueB5.png,Beta,Alpha,False,0.2805826000403613,11,False,7
11009,training_phase_1,2,6,69,materials/images/blueB2.png,Beta,Beta,True,1.5434384000254795,11,False,8
11009,training_phase_1,2,6,70,materials/images/blueB3.png,Beta,Beta,True,0.9518900999100879,11,False,9
11009,training_phase_1,2,6,71,materials/images/redA3.png,Alpha,Beta,False,0.6634734000544995,11,False,9
11009,training_phase_1,2,6,72,materials/images/blueB4.png,Beta,Alpha,False,0.024071400053799152,11,False,9
11009,training_phase_1,2,7,73,materials/images/redA3.png,Alpha,Alpha,True,0.6600572998868302,11,False,1
11009,training_phase_1,2,7,74,materials/images/blueB3.png,Beta,Beta,True,0.8854618000332266,11,False,2
11009,training_phase_1,2,7,75,materials/images/redA2.png,Alpha,Alpha,True,0.8197335998993367,11,False,3
11009,training_phase_1,2,7,76,materials/images/blueB2.png,Beta,Beta,True,0.02386249997653067,11,False,4
11009,training_phase_1,2,7,77,materials/images/blueB6.png,Beta,Beta,True,0.41449359990656376,11,False,5
11009,training_phase_1,2,7,78,materials/images/redA1.png,Alpha,Alpha,True,0.3461053000064567,11,False,6
11009,training_phase_1,2,7,79,materials/images/redA6.png,Alpha,Beta,False,0.20978439995087683,11,False,6
11009,training_phase_1,2,7,80,materials/images/blueB4.png,Beta,Alpha,False,0.5579408999765292,11,False,6
11009,training_phase_1,2,7,81,materials/images/redA5.png,Alpha,Beta,False,0.1273563998984173,11,False,6
11009,training_phase_1,2,7,82,materials/images/redA4.png,Alpha,Alpha,True,0.018767799949273467,11,False,7
11009,training_phase_1,2,7,83,materials/images/blueB1.png,Beta,Beta,True,0.028883500024676323,11,False,8
11009,training_phase_1,2,7,84,materials/images/blueB5.png,Beta,Alpha,False,0.29934350005351007,11,False,8
11009,training_phase_1,2,8,85,materials/images/redA5.png,Alpha,Beta,False,0.9063526999671012,11,False,0
11009,training_phase_1,2,8,86,materials/images/blueB4.png,Beta,Alpha,False,0.019825899973511696,11,False,0
11009,training_phase_1,2,8,87,materials/images/blueB2.png,Beta,Beta,True,1.1655969999264926,11,False,1
11009,training_phase_1,2,8,88,materials/images/redA4.png,Alpha,Beta,False,0.019758099922910333,11,False,1
11009,training_phase_1,2,8,89,materials/images/redA3.png,Alpha,Alpha,True,0.9048377000726759,11,False,2
11009,training_phase_1,2,8,90,materials/images/redA2.png,Alpha,Alpha,True,0.602826299960725,11,False,3
11009,training_phase_1,2,8,91,materials/images/blueB3.png,Beta,Beta,True,0.01905769994482398,11,False,4
11009,training_phase_1,2,8,92,materials/images/redA1.png,Alpha,Alpha,True,0.9558972000377253,11,False,5
11009,training_phase_1,2,8,93,materials/images/blueB6.png,Beta,Beta,True,0.4224520999705419,11,False,6
11009,training_phase_1,2,8,94,materials/images/redA6.png,Alpha,Beta,False,0.8679513999959454,11,False,6
11009,training_phase_1,2,8,95,materials/images/blueB1.png,Beta,Beta,True,0.4936293000355363,11,False,7
11009,training_phase_1,2,8,96,materials/images/blueB5.png,Beta,Beta,True,1.7343321000225842,11,False,8
pnum,phase_id,condition,block_data,trial_num,stim,correct_category,response,hit,rt,criterian,met_criterian,num_correct_in_block
11009,test_phase,2,1,1,materials/images/yGen4.png,test,Beta,gen,1.9480204000137746,1,True,1
11009,test_phase,2,1,2,materials/images/blueB2.png,Beta,Beta,gen,0.4361568000167608,1,True,2
11009,test_phase,2,1,3,materials/images/yGen3.png,test,Beta,gen,1.3567214999347925,1,True,3
11009,test_phase,2,1,4,materials/images/redA6.png,Alpha,Beta,gen,0.9666241999948397,1,True,4
11009,test_phase,2,1,5,materials/images/blueB5.png,Beta,Alpha,gen,0.022429200005717576,1,True,5
11009,test_phase,2,1,6,materials/images/redA2.png,Alpha,Alpha,gen,0.785141000058502,1,True,6
11009,test_phase,2,1,7,materials/images/blueB3.png,Beta,Beta,gen,1.039135100087151,1,True,7
11009,test_phase,2,1,8,materials/images/redA1.png,Alpha,Alpha,gen,0.20926820009481162,1,True,8
11009,test_phase,2,1,9,materials/images/redA5.png,Alpha,Beta,gen,5.443971399916336,1,True,9
11009,test_phase,2,1,10,materials/images/blueB1.png,Beta,Beta,gen,2.7102186999982223,1,True,10
11009,test_phase,2,1,11,materials/images/redA3.png,Alpha,Alpha,gen,1.01551479997579,1,True,11
11009,test_phase,2,1,12,materials/images/blueB6.png,Beta,Beta,gen,0.476222199969925,1,True,12
11009,test_phase,2,1,13,materials/images/redA4.png,Alpha,Alpha,gen,0.2397963999537751,1,True,13
11009,test_phase,2,1,14,materials/images/yGen1.png,test,Alpha,gen,0.36971999995876104,1,True,14
11009,test_phase,2,1,15,materials/images/yGen5.png,test,Beta,gen,0.02290529990568757,1,True,15
11009,test_phase,2,1,16,materials/images/blueB4.png,Beta,Alpha,gen,0.8655732999322936,1,True,16
11009,test_phase,2,1,17,materials/images/yGen2.png,test,Alpha,gen,0.018870600033551455,1,True,17
pnum,phase_id,condition,block_data,trial_num,stim,correct_category,response,hit,rt,criterian,met_criterian,num_correct_in_block
11009,training_phase_2,2,1,1,materials/images/blueB1.png,Beta,Beta,True,1.4384863000595942,30,False,1
11009,training_phase_2,2,1,2,materials/images/blackG6.png,Gamma,Alpha,False,0.27255339990369976,30,False,1
11009,training_phase_2,2,1,3,materials/images/redA2.png,Alpha,Alpha,True,0.4389763999497518,30,False,2
11009,training_phase_2,2,1,4,materials/images/blueB4.png,Beta,Alpha,False,1.6499683000147343,30,False,2
11009,training_phase_2,2,1,5,materials/images/blueB2.png,Beta,Beta,True,0.055472300038672984,30,False,3
11009,training_phase_2,2,1,6,materials/images/blueB6.png,Beta,Gamma,False,0.14284460002090782,30,False,3
11009,training_phase_2,2,1,7,materials/images/redA6.png,Alpha,Gamma,False,1.156268100021407,30,False,3
11009,training_phase_2,2,1,8,materials/images/greenD6.png,Delta,Beta,False,0.1820816999534145,30,False,3
11009,training_phase_2,2,1,9,materials/images/redA5.png,Alpha,Alpha,True,6.593632299918681,30,False,4
11009,training_phase_2,2,1,10,materials/images/greenD2.png,Delta,Delta,True,7.855568400002085,30,False,5
11009,training_phase_2,2,1,11,materials/images/blackG2.png,Gamma,Beta,False,1.5319645000854507,30,False,5
11009,training_phase_2,2,1,12,materials/images/blackG1.png,Gamma,Gamma,True,0.8372296000597998,30,False,6
11009,training_phase_2,2,1,13,materials/images/redA4.png,Alpha,Beta,False,1.6230633999221027,30,False,6
11009,training_phase_2,2,1,14,materials/images/greenD5.png,Delta,Beta,False,0.018206199980340898,30,False,6
11009,training_phase_2,2,1,15,materials/images/blackG4.png,Gamma,Alpha,False,0.026226300047710538,30,False,6
11009,training_phase_2,2,1,16,materials/images/blackG3.png,Gamma,Beta,False,2.015840500011109,30,False,6
11009,training_phase_2,2,1,17,materials/images/blackG5.png,Gamma,Alpha,False,0.36326400004327297,30,False,6
11009,training_phase_2,2,1,18,materials/images/blueB3.png,Beta,Gamma,False,0.5369943999685347,30,False,6
11009,training_phase_2,2,1,19,materials/images/greenD4.png,Delta,Delta,True,1.9446404998889193,30,False,7
11009,training_phase_2,2,1,20,materials/images/greenD1.png,Delta,Delta,True,0.45763129997067153,30,False,8
11009,training_phase_2,2,1,21,materials/images/redA3.png,Alpha,Alpha,True,1.2686876999214292,30,False,9
11009,training_phase_2,2,1,22,materials/images/greenD3.png,Delta,Delta,True,1.5103683000197634,30,False,10
11009,training_phase_2,2,1,23,materials/images/blueB5.png,Beta,Gamma,False,0.7703137000789866,30,False,10
11009,training_phase_2,2,1,24,materials/images/redA1.png,Alpha,Beta,False,4.419768000021577,30,False,10
11009,training_phase_2,2,2,25,materials/images/greenD4.png,Delta,Delta,True,0.23608040006365627,30,False,1
11009,training_phase_2,2,2,26,materials/images/redA5.png,Alpha,Alpha,True,0.9678487000055611,30,False,2
11009,training_phase_2,2,2,27,materials/images/greenD6.png,Delta,Delta,True,0.05525209999177605,30,False,3
11009,training_phase_2,2,2,28,materials/images/blueB4.png,Beta,Alpha,False,0.6706256000325084,30,False,3
11009,training_phase_2,2,2,29,materials/images/greenD5.png,Delta,Delta,True,0.14349650009535253,30,False,4
11009,training_phase_2,2,2,30,materials/images/blackG2.png,Gamma,Gamma,True,1.7040957999415696,30,False,5
11009,training_phase_2,2,2,31,materials/images/redA2.png,Alpha,Alpha,True,2.1991110000526533,30,False,6
11009,training_phase_2,2,2,32,materials/images/blackG1.png,Gamma,Beta,False,0.9077698999317363,30,False,6
11009,training_phase_2,2,2,33,materials/images/redA6.png,Alpha,Alpha,True,2.5159526999341324,30,False,7
11009,training_phase_2,2,2,34,materials/images/blackG4.png,Gamma,Alpha,False,2.0788826999487355,30,False,7
11009,training_phase_2,2,2,35,materials/images/greenD3.png,Delta,Delta,True,0.19587690010666847,30,False,8
11009,training_phase_2,2,2,36,materials/images/blackG6.png,Gamma,Alpha,False,0.5724018999608234,30,False,8
11009,training_phase_2,2,2,37,materials/images/blueB3.png,Beta,Beta,True,1.4527940000407398,30,False,9
11009,training_phase_2,2,2,38,materials/images/blackG3.png,Gamma,Gamma,True,1.92522969993297,30,False,10
11009,training_phase_2,2,2,39,materials/images/blackG5.png,Gamma,Gamma,True,1.0265662000747398,30,False,11
11009,training_phase_2,2,2,40,materials/images/greenD2.png,Delta,Delta,True,0.27973810001276433,30,False,12
11009,training_phase_2,2,2,41,materials/images/blueB2.png,Beta,Beta,True,4.799511899938807,30,False,13
11009,training_phase_2,2,2,42,materials/images/greenD1.png,Delta,Delta,True,2.2725616999669,30,False,14
11009,training_phase_2,2,2,43,materials/images/redA4.png,Alpha,Gamma,False,4.08707620005589,30,False,14
11009,training_phase_2,2,2,44,materials/images/blueB1.png,Beta,Delta,False,1.4845905000111088,30,False,14
11009,training_phase_2,2,2,45,materials/images/blueB6.png,Beta,Alpha,False,5.93915799993556,30,False,14
11009,training_phase_2,2,2,46,materials/images/redA1.png,Alpha,Gamma,False,0.6924530999967828,30,False,14
11009,training_phase_2,2,2,47,materials/images/blueB5.png,Beta,Alpha,False,0.022619799943640828,30,False,14
11009,training_phase_2,2,2,48,materials/images/redA3.png,Alpha,Alpha,True,0.6660986000206321,30,False,15
11010,training_phase_1,1,1,1,materials/images/blueB4.png,Beta,Alpha,False,1.7761302998987958,11,False,0
11010,training_phase_1,1,1,2,materials/images/redA2.png,Alpha,Alpha,True,1.1352932000299916,11,False,1
11010,training_phase_1,1,1,3,materials/images/redA5.png,Alpha,Beta,False,0.564691900042817,11,False,1
11010,training_phase_1,1,1,4,materials/images/redA4.png,Alpha,Beta,False,0.5519221000140533,11,False,1
11010,training_phase_1,1,1,5,materials/images/blueB3.png,Beta,Alpha,False,0.19895549991633743,11,False,1
11010,training_phase_1,1,1,6,materials/images/redA3.png,Alpha,Beta,False,0.13894299999810755,11,False,1
11010,training_phase_1,1,1,7,materials/images/blueB1.png,Beta,Beta,True,0.26664859999436885,11,False,2
11010,training_phase_1,1,1,8,materials/images/blueB2.png,Beta,Beta,True,0.02371470001526177,11,False,3
11010,training_phase_1,1,1,9,materials/images/blueB5.png,Beta,Alpha,False,0.714877099962905,11,False,3
11010,training_phase_1,1,1,10,materials/images/redA1.png,Alpha,Alpha,True,0.4924639000091702,11,False,4
11010,training_phase_1,1,1,11,materials/images/blueB6.png,Beta,Beta,True,0.5337788000470027,11,False,5
11010,training_phase_1,1,1,12,materials/images/redA6.png,Alpha,Alpha,True,0.3611607999773696,11,False,6
11010,training_phase_1,1,2,13,materials/images/redA2.png,Alpha,Beta,False,2.094008200103417,11,False,0
11010,training_phase_1,1,2,14,materials/images/redA1.png,Alpha,Alpha,True,0.020085500087589025,11,False,1
11010,training_phase_1,1,2,15,materials/images/redA4.png,Alpha,Beta,False,0.5152313000289723,11,False,1
11010,training_phase_1,1,2,16,materials/images/blueB1.png,Beta,Beta,True,0.48452209995593876,11,False,2
11010,training_phase_1,1,2,17,materials/images/blueB3.png,Beta,Alpha,False,0.37210299994330853,11,False,2
11010,training_phase_1,1,2,18,materials/images/blueB4.png,Beta,Alpha,False,0.3520983000053093,11,False,2
11010,training_phase_1,1,2,19,materials/images/redA3.png,Alpha,Beta,False,0.2054451999720186,11,False,2
11010,training_phase_1,1,2,20,materials/images/blueB2.png,Beta,Beta,True,0.26758350001182407,11,False,3
11010,training_phase_1,1,2,21,materials/images/blueB6.png,Beta,Beta,True,0.3769762000301853,11,False,4
11010,training_phase_1,1,2,22,materials/images/redA5.png,Alpha,Alpha,True,0.10304009995888919,11,False,5
11010,training_phase_1,1,2,23,materials/images/redA6.png,Alpha,Alpha,True,0.5452896000351757,11,False,6
11010,training_phase_1,1,2,24,materials/images/blueB5.png,Beta,Beta,True,0.02102079999167472,11,False,7
11010,training_phase_1,1,3,25,materials/images/blueB6.png,Beta,Alpha,False,0.7075443000067025,11,False,0
11010,training_phase_1,1,3,26,materials/images/blueB4.png,Beta,Alpha,False,0.11366519995499402,11,False,0
11010,training_phase_1,1,3,27,materials/images/blueB5.png,Beta,Beta,True,0.0247648999793455,11,False,1
11010,training_phase_1,1,3,28,materials/images/redA5.png,Alpha,Alpha,True,0.9570522999856621,11,False,2
11010,training_phase_1,1,3,29,materials/images/blueB1.png,Beta,Beta,True,0.24764339998364449,11,False,3
11010,training_phase_1,1,3,30,materials/images/redA4.png,Alpha,Alpha,True,0.3190279999980703,11,False,4
11010,training_phase_1,1,3,31,materials/images/redA6.png,Alpha,Beta,False,0.24928749992977828,11,False,4
11010,training_phase_1,1,3,32,materials/images/blueB2.png,Beta,Beta,True,1.9109364999458194,11,False,5
11010,training_phase_1,1,3,33,materials/images/blueB3.png,Beta,Alpha,False,0.16511269996408373,11,False,5
11010,training_phase_1,1,3,34,materials/images/redA1.png,Alpha,Beta,False,1.087999299983494,11,False,5
11010,training_phase_1,1,3,35,materials/images/redA3.png,Alpha,Beta,False,0.16859730007126927,11,False,5
11010,training_phase_1,1,3,36,materials/images/redA2.png,Alpha,Alpha,True,0.3732907000230625,11,False,6
11010,training_phase_1,1,4,37,materials/images/redA2.png,Alpha,Alpha,True,0.03884500009007752,11,False,1
11010,training_phase_1,1,4,38,materials/images/blueB2.png,Beta,Alpha,False,0.7134056999348104,11,False,1
11010,training_phase_1,1,4,39,materials/images/redA4.png,Alpha,Alpha,True,0.41201640001963824,11,False,2
11010,training_phase_1,1,4,40,materials/images/redA3.png,Alpha,Beta,False,0.021165699930861592,11,False,2
11010,training_phase_1,1,4,41,materials/images/blueB3.png,Beta,Beta,True,0.0591870000353083,11,False,3
11010,training_phase_1,1,4,42,materials/images/blueB4.png,Beta,Beta,True,0.02597690001130104,11,False,4
11010,training_phase_1,1,4,43,materials/images/blueB6.png,Beta,Alpha,False,0.04094090010039508,11,False,4
11010,training_phase_1,1,4,44,materials/images/redA6.png,Alpha,Beta,False,0.7370862000389025,11,False,4
11010,training_phase_1,1,4,45,materials/images/redA1.png,Alpha,Beta,False,0.14956859999801964,11,False,4
11010,training_phase_1,1,4,46,materials/images/blueB5.png,Beta,Alpha,False,0.5378110000165179,11,False,4
11010,training_phase_1,1,4,47,materials/images/blueB1.png,Beta,Alpha,False,0.2141511000227183,11,False,4
11010,training_phase_1,1,4,48,materials/images/redA5.png,Alpha,Beta,False,0.024139299988746643,11,False,4
11010,training_phase_1,1,5,49,materials/images/blueB5.png,Beta,Alpha,False,0.09984789998270571,11,False,0
11010,training_phase_1,1,5,50,materials/images/redA4.png,Alpha,Beta,False,0.02409379999153316,11,False,0
11010,training_phase_1,1,5,51,materials/images/blueB1.png,Beta,Alpha,False,0.3312217000639066,11,False,0
11010,training_phase_1,1,5,52,materials/images/blueB2.png,Beta,Alpha,False,0.023623800021596253,11,False,0
11010,training_phase_1,1,5,53,materials/images/blueB6.png,Beta,Beta,True,0.2874952999409288,11,False,1
11010,training_phase_1,1,5,54,materials/images/redA3.png,Alpha,Alpha,True,0.5942347999662161,11,False,2
11010,training_phase_1,1,5,55,materials/images/redA1.png,Alpha,Beta,False,0.17457340005785227,11,False,2
11010,training_phase_1,1,5,56,materials/images/redA5.png,Alpha,Beta,False,0.7230283999815583,11,False,2
11010,training_phase_1,1,5,57,materials/images/redA2.png,Alpha,Alpha,True,0.03491859999485314,11,False,3
11010,training_phase_1,1,5,58,materials/images/blueB3.png,Beta,Beta,True,0.2907246999675408,11,False,4
11010,training_phase_1,1,5,59,materials/images/redA6.png,Alpha,Alpha,True,0.04712510004173964,11,False,5
11010,training_phase_1,1,5,60,materials/images/blueB4.png,Beta,Alpha,False,0.023795700049959123,11,False,5
11010,training_phase_1,1,6,61,materials/images/blueB2.png,Beta,Beta,True,0.02017840009648353,11,False,1
11010,training_phase_1,1,6,62,materials/images/blueB6.png,Beta,Alpha,False,0.08848130004480481,11,False,1
11010,training_phase_1,1,6,63,materials/images/blueB4.png,Beta,Alpha,False,0.14893719996325672,11,False,1
11010,training_phase_1,1,6,64,materials/images/blueB3.png,Beta,Beta,True,0.32440459995996207,11,False,2
11010,training_phase_1,1,6,65,materials/images/blueB5.png,Beta,Alpha,False,0.08039919997099787,11,False,2
11010,training_phase_1,1,6,66,materials/images/redA1.png,Alpha,Alpha,True,0.10720959992613643,11,False,3
11010,training_phase_1,1,6,67,materials/images/blueB1.png,Beta,Alpha,False,0.12459130003117025,11,False,3
11010,training_phase_1,1,6,68,materials/images/redA5.png,Alpha,Beta,False,0.24033760000020266,11,False,3
11010,training_phase_1,1,6,69,materials/images/redA4.png,Alpha,Alpha,True,0.18075459997635335,11,False,4
11010,training_phase_1,1,6,70,materials/images/redA2.png,Alpha,Alpha,True,0.19607790000736713,11,False,5
11010,training_phase_1,1,6,71,materials/images/redA3.png,Alpha,Alpha,True,0.03861260006669909,11,False,6
11010,training_phase_1,1,6,72,materials/images/redA6.png,Alpha,Alpha,True,0.2048046999843791,11,False,7
11010,training_phase_1,1,7,73,materials/images/redA3.png,Alpha,Alpha,True,0.33929100004024804,11,False,1
11010,training_phase_1,1,7,74,materials/images/redA5.png,Alpha,Alpha,True,0.048035699990577996,11,False,2
11010,training_phase_1,1,7,75,materials/images/blueB5.png,Beta,Beta,True,0.3970367999281734,11,False,3
11010,training_phase_1,1,7,76,materials/images/redA1.png,Alpha,Alpha,True,0.018048299942165613,11,False,4
11010,training_phase_1,1,7,77,materials/images/redA2.png,Alpha,Alpha,True,0.1850920000579208,11,False,5
11010,training_phase_1,1,7,78,materials/images/blueB4.png,Beta,Beta,True,0.022933000000193715,11,False,6
11010,training_phase_1,1,7,79,materials/images/blueB3.png,Beta,Alpha,False,0.08436909993179142,11,False,6
11010,training_phase_1,1,7,80,materials/images/blueB6.png,Beta,Beta,True,0.022990999976173043,11,False,7
11010,training_phase_1,1,7,81,materials/images/redA4.png,Alpha,Alpha,True,0.281388400006108,11,False,8
11010,training_phase_1,1,7,82,materials/images/redA6.png,Alpha,Beta,False,0.786107600084506,11,False,8
11010,training_phase_1,1,7,83,materials/images/blueB2.png,Beta,Alpha,False,0.12338219990488142,11,False,8
11010,training_phase_1,1,7,84,materials/images/blueB1.png,Beta,Alpha,False,0.2710942999692634,11,False,8
11010,training_phase_1,1,8,85,materials/images/blueB5.png,Beta,Alpha,False,0.08346939994953573,11,False,0
11010,training_phase_1,1,8,86,materials/images/blueB1.png,Beta,Beta,True,0.019008299917913973,11,False,1
11010,training_phase_1,1,8,87,materials/images/redA5.png,Alpha,Beta,False,0.12221279996447265,11,False,1
11010,training_phase_1,1,8,88,materials/images/blueB3.png,Beta,Alpha,False,0.022799300029873848,11,False,1
11010,training_phase_1,1,8,89,materials/images/redA2.png,Alpha,Alpha,True,0.025284199975430965,11,False,2
11010,training_phase_1,1,8,90,materials/images/blueB4.png,Beta,Alpha,False,0.022356800036504865,11,False,2
11010,training_phase_1,1,8,91,materials/images/redA6.png,Alpha,Alpha,True,0.09868329996243119,11,False,3
11010,training_phase_1,1,8,92,materials/images/redA4.png,Alpha,Alpha,True,0.32013389992062,11,False,4
11010,training_phase_1,1,8,93,materials/images/blueB2.png,Beta,Alpha,False,0.018475000048056245,11,False,4
11010,training_phase_1,1,8,94,materials/images/redA1.png,Alpha,Alpha,True,0.3867609000299126,11,False,5
11010,training_phase_1,1,8,95,materials/images/redA3.png,Alpha,Beta,False,0.09775620000436902,11,False,5
11010,training_phase_1,1,8,96,materials/images/blueB6.png,Beta,Alpha,False,0.023344699991866946,11,False,5
pnum,phase_id,condition,block_data,trial_num,stim,correct_category,response,hit,rt,criterian,met_criterian,num_correct_in_block
11010,test_phase,1,1,1,materials/images/blueB3.png,Beta,Alpha,gen,0.023489100043661892,1,True,1
11010,test_phase,1,1,2,materials/images/blueB6.png,Beta,Beta,gen,0.018910299986600876,1,True,2
11010,test_phase,1,1,3,materials/images/blueB1.png,Beta,Alpha,gen,0.13537430006545037,1,True,3
11010,test_phase,1,1,4,materials/images/redA4.png,Alpha,Alpha,gen,0.01907560008112341,1,True,4
11010,test_phase,1,1,5,materials/images/yGen4.png,test,Beta,gen,0.08357590006198734,1,True,5
11010,test_phase,1,1,6,materials/images/redA5.png,Alpha,Alpha,gen,0.3913797000423074,1,True,6
11010,test_phase,1,1,7,materials/images/redA3.png,Alpha,Alpha,gen,0.02322109998203814,1,True,7
11010,test_phase,1,1,8,materials/images/blueB2.png,Beta,Alpha,gen,0.019301900058053434,1,True,8
11010,test_phase,1,1,9,materials/images/blueB5.png,Beta,Beta,gen,0.02277639997191727,1,True,9
11010,test_phase,1,1,10,materials/images/yGen3.png,test,Beta,gen,0.019694600021466613,1,True,10
11010,test_phase,1,1,11,materials/images/yGen1.png,test,Alpha,gen,0.02200019999872893,1,True,11
11010,test_phase,1,1,12,materials/images/yGen2.png,test,Alpha,gen,0.0221721000270918,1,True,12
11010,test_phase,1,1,13,materials/images/redA6.png,Alpha,Alpha,gen,0.019647300010547042,1,True,13
11010,test_phase,1,1,14,materials/images/yGen5.png,test,Beta,gen,0.9578235999215394,1,True,14
11010,test_phase,1,1,15,materials/images/redA1.png,Alpha,Alpha,gen,0.023164200014434755,1,True,15
11010,test_phase,1,1,16,materials/images/redA2.png,Alpha,Alpha,gen,0.3894146999809891,1,True,16
11010,test_phase,1,1,17,materials/images/blueB4.png,Beta,Beta,gen,0.018174699973315,1,True,17
pnum,phase_id,condition,block_data,trial_num,stim,correct_category,response,hit,rt,criterian,met_criterian,num_correct_in_block
11010,training_phase_2,1,1,1,materials/images/greenD1.png,Delta,Beta,False,0.8695173000451177,30,False,0
11010,training_phase_2,1,1,2,materials/images/blackG4.png,Gamma,Gamma,True,0.11434620001818985,30,False,1
11010,training_phase_2,1,1,3,materials/images/greenD6.png,Delta,Gamma,False,0.25586749997455627,30,False,1
11010,training_phase_2,1,1,4,materials/images/redA3.png,Alpha,Beta,False,0.02448919997550547,30,False,1
11010,training_phase_2,1,1,5,materials/images/blackG2.png,Gamma,Beta,False,0.20751730003394186,30,False,1
11010,training_phase_2,1,1,6,materials/images/greenD3.png,Delta,Beta,False,0.03715830005239695,30,False,1
11010,training_phase_2,1,1,7,materials/images/blueB3.png,Beta,Beta,True,0.019352999981492758,30,False,2
11010,training_phase_2,1,1,8,materials/images/blueB2.png,Beta,Gamma,False,0.17736089997924864,30,False,2
11010,training_phase_2,1,1,9,materials/images/redA4.png,Alpha,Beta,False,0.13025719998404384,30,False,2
11010,training_phase_2,1,1,10,materials/images/greenD2.png,Delta,Delta,True,0.36243009997997433,30,False,3
11010,training_phase_2,1,1,11,materials/images/blueB4.png,Beta,Beta,True,0.2905752999940887,30,False,4
11010,training_phase_2,1,1,12,materials/images/greenD4.png,Delta,Gamma,False,0.022520700003951788,30,False,4
11010,training_phase_2,1,1,13,materials/images/blackG6.png,Gamma,Gamma,True,0.229393900022842,30,False,5
11010,training_phase_2,1,1,14,materials/images/greenD5.png,Delta,Gamma,False,0.24791269993875176,30,False,5
11010,training_phase_2,1,1,15,materials/images/blackG3.png,Gamma,Beta,False,0.3010243000462651,30,False,5
11010,training_phase_2,1,1,16,materials/images/blueB5.png,Beta,Gamma,False,0.05374699993990362,30,False,5
11010,training_phase_2,1,1,17,materials/images/blueB6.png,Beta,Gamma,False,0.047782600042410195,30,False,5
11010,training_phase_2,1,1,18,materials/images/blackG5.png,Gamma,Gamma,True,0.1583268999820575,30,False,6
11010,training_phase_2,1,1,19,materials/images/blueB1.png,Beta,Delta,False,0.09833189996425062,30,False,6
11010,training_phase_2,1,1,20,materials/images/redA2.png,Alpha,Gamma,False,0.15083160006906837,30,False,6
11010,training_phase_2,1,1,21,materials/images/redA1.png,Alpha,Beta,False,0.019804300041869283,30,False,6
11010,training_phase_2,1,1,22,materials/images/redA5.png,Alpha,Alpha,True,0.363311699940823,30,False,7
11010,training_phase_2,1,1,23,materials/images/blackG1.png,Gamma,Beta,False,0.14252059999853373,30,False,7
11010,training_phase_2,1,1,24,materials/images/redA6.png,Alpha,Beta,False,0.47687219991348684,30,False,7
11010,training_phase_2,1,2,25,materials/images/greenD4.png,Delta,Gamma,False,0.02311149996239692,30,False,0
11010,training_phase_2,1,2,26,materials/images/greenD6.png,Delta,Beta,False,0.08103799994569272,30,False,0
11010,training_phase_2,1,2,27,materials/images/redA3.png,Alpha,Gamma,False,0.027490900014527142,30,False,0
11010,training_phase_2,1,2,28,materials/images/blueB4.png,Beta,Alpha,False,0.03016700001899153,30,False,0
11010,training_phase_2,1,2,29,materials/images/greenD5.png,Delta,Beta,False,0.3002105000196025,30,False,0
11010,training_phase_2,1,2,30,materials/images/redA2.png,Alpha,Gamma,False,0.024987499928101897,30,False,0
11010,training_phase_2,1,2,31,materials/images/greenD1.png,Delta,Beta,False,0.19271679990924895,30,False,0
11010,training_phase_2,1,2,32,materials/images/blackG1.png,Gamma,Gamma,True,0.5482737000565976,30,False,1
11010,training_phase_2,1,2,33,materials/images/blueB1.png,Beta,Beta,True,0.11678739998023957,30,False,2
11010,training_phase_2,1,2,34,materials/images/blackG2.png,Gamma,Gamma,True,0.18752450007013977,30,False,3
11010,training_phase_2,1,2,35,materials/images/greenD2.png,Delta,Beta,False,0.025773200090043247,30,False,3
11010,training_phase_2,1,2,36,materials/images/redA1.png,Alpha,Alpha,True,0.2816866999492049,30,False,4
11010,training_phase_2,1,2,37,materials/images/blackG6.png,Gamma,Alpha,False,0.5503512000432238,30,False,4
11010,training_phase_2,1,2,38,materials/images/blueB5.png,Beta,Beta,True,0.02052950009237975,30,False,5
11010,training_phase_2,1,2,39,materials/images/redA4.png,Alpha,Beta,False,0.1877673000562936,30,False,5
11010,training_phase_2,1,2,40,materials/images/blackG4.png,Gamma,Alpha,False,0.03507690003607422,30,False,5
11010,training_phase_2,1,2,41,materials/images/blueB6.png,Beta,Beta,True,0.6933284000260755,30,False,6
11010,training_phase_2,1,2,42,materials/images/redA5.png,Alpha,Gamma,False,0.278772099991329,30,False,6
11010,training_phase_2,1,2,43,materials/images/blackG3.png,Gamma,Gamma,True,0.37197980005294085,30,False,7
11010,training_phase_2,1,2,44,materials/images/blueB3.png,Beta,Delta,False,0.03555839997716248,30,False,7
11010,training_phase_2,1,2,45,materials/images/blackG5.png,Gamma,Beta,False,0.49347559991292655,30,False,7
11010,training_phase_2,1,2,46,materials/images/redA6.png,Alpha,Gamma,False,0.3228703999193385,30,False,7
11010,training_phase_2,1,2,47,materials/images/greenD3.png,Delta,Alpha,False,0.020143300062045455,30,False,7
11010,training_phase_2,1,2,48,materials/images/blueB2.png,Beta,Beta,True,0.3292033000616357,30,False,8
11011,training_phase_1,2,1,1,materials/images/blueB6.png,Beta,Alpha,False,2.656871200000751,11,False,0
11011,training_phase_1,2,1,2,materials/images/blueB5.png,Beta,Beta,True,0.6519640999977128,11,False,1
11011,training_phase_1,2,1,3,materials/images/redA5.png,Alpha,Beta,False,1.138782900001388,11,False,1
11011,training_phase_1,2,1,4,materials/images/redA3.png,Alpha,Alpha,True,0.02330960000108462,11,False,2
11011,training_phase_1,2,1,5,materials/images/redA6.png,Alpha,Beta,False,0.017845999995188322,11,False,2
11011,training_phase_1,2,1,6,materials/images/blueB1.png,Beta,Alpha,False,0.45362619999650633,11,False,2
11011,training_phase_1,2,1,7,materials/images/redA2.png,Alpha,Beta,False,0.415372399998887,11,False,2
11011,training_phase_1,2,1,8,materials/images/blueB3.png,Beta,Beta,True,1.1614676999961375,11,False,3
11011,training_phase_1,2,1,9,materials/images/redA4.png,Alpha,Alpha,True,1.5171986000059405,11,False,4
11011,training_phase_1,2,1,10,materials/images/redA1.png,Alpha,Alpha,True,0.22153890000481624,11,False,5
11011,training_phase_1,2,1,11,materials/images/blueB4.png,Beta,Alpha,False,2.099596300002304,11,False,5
11011,training_phase_1,2,1,12,materials/images/blueB2.png,Beta,Beta,True,0.5878602000011597,11,False,6
11011,training_phase_1,2,2,13,materials/images/redA5.png,Alpha,Beta,False,2.343485799996415,11,False,0
11011,training_phase_1,2,2,14,materials/images/blueB4.png,Beta,Beta,True,0.16909219999797642,11,False,1
11011,training_phase_1,2,2,15,materials/images/blueB6.png,Beta,Beta,True,0.04188550000253599,11,False,2
11011,training_phase_1,2,2,16,materials/images/blueB2.png,Beta,Alpha,False,0.02236389999598032,11,False,2
11011,training_phase_1,2,2,17,materials/images/redA2.png,Alpha,Alpha,True,0.8146505000040634,11,False,3
11011,training_phase_1,2,2,18,materials/images/redA6.png,Alpha,Alpha,True,0.7633016999971005,11,False,4
11011,training_phase_1,2,2,19,materials/images/redA3.png,Alpha,Alpha,True,0.2621461999951862,11,False,5
11011,training_phase_1,2,2,20,materials/images/redA1.png,Alpha,Alpha,True,0.03925290000188397,11,False,6
11011,training_phase_1,2,2,21,materials/images/blueB3.png,Beta,Beta,True,0.8079413000014029,11,False,7
11011,training_phase_1,2,2,22,materials/images/blueB5.png,Beta,Beta,True,0.150198300005286,11,False,8
11011,training_phase_1,2,2,23,materials/images/blueB1.png,Beta,Beta,True,3.261232500000915,11,False,9
11011,training_phase_1,2,2,24,materials/images/redA4.png,Alpha,Alpha,True,0.2115055999965989,11,False,10
11011,training_phase_1,2,3,25,materials/images/blueB2.png,Beta,Beta,True,0.018527399995946325,11,False,1
11011,training_phase_1,2,3,26,materials/images/redA5.png,Alpha,Beta,False,0.03672930000175256,11,False,1
11011,training_phase_1,2,3,27,materials/images/blueB6.png,Beta,Beta,True,0.5795591000060085,11,False,2
11011,training_phase_1,2,3,28,materials/images/redA1.png,Alpha,Alpha,True,0.018120699998689815,11,False,3
11011,training_phase_1,2,3,29,materials/images/redA2.png,Alpha,Alpha,True,0.3806942000010167,11,False,4
11011,training_phase_1,2,3,30,materials/images/blueB4.png,Beta,Alpha,False,0.45905620000121417,11,False,4
11011,training_phase_1,2,3,31,materials/images/redA6.png,Alpha,Beta,False,0.3797781000030227,11,False,4
11011,training_phase_1,2,3,32,materials/images/redA3.png,Alpha,Alpha,True,6.139141599996947,11,False,5
11011,training_phase_1,2,3,33,materials/images/blueB5.png,Beta,Beta,True,1.1475146000011591,11,False,6
11011,training_phase_1,2,3,34,materials/images/redA4.png,Alpha,Beta,False,1.1472611999997753,11,False,6
11011,training_phase_1,2,3,35,materials/images/blueB1.png,Beta,Beta,True,0.14900829999533016,11,False,7
11011,training_phase_1,2,3,36,materials/images/blueB3.png,Beta,Beta,True,0.34771680000267224,11,False,8
11011,training_phase_1,2,4,37,materials/images/redA4.png,Alpha,Alpha,True,0.1542782000033185,11,False,1
11011,training_phase_1,2,4,38,materials/images/redA5.png,Alpha,Alpha,True,0.2589194999964093,11,False,2
11011,training_phase_1,2,4,39,materials/images/blueB1.png,Beta,Beta,True,3.1339690999957384,11,False,3
11011,training_phase_1,2,4,40,materials/images/blueB4.png,Beta,Beta,True,0.1559726999985287,11,False,4
11011,training_phase_1,2,4,41,materials/images/blueB2.png,Beta,Alpha,False,1.1798979000013787,11,False,4
11011,training_phase_1,2,4,42,materials/images/redA2.png,Alpha,Alpha,True,0.01870210000197403,11,False,5
11011,training_phase_1,2,4,43,materials/images/blueB6.png,Beta,Beta,True,0.8387418999991496,11,False,6
11011,training_phase_1,2,4,44,materials/images/blueB5.png,Beta,Beta,True,0.3522404999966966,11,False,7
11011,training_phase_1,2,4,45,materials/images/redA3.png,Alpha,Alpha,True,0.37298639999789884,11,False,8
11011,training_phase_1,2,4,46,materials/images/blueB3.png,Beta,Beta,True,0.1989566999982344,11,False,9
11011,training_phase_1,2,4,47,materials/images/redA1.png,Alpha,Alpha,True,0.022789900001953356,11,False,10
11011,training_phase_1,2,4,48,materials/images/redA6.png,Alpha,Beta,False,0.1645663000017521,11,False,10
11011,training_phase_1,2,5,49,materials/images/redA3.png,Alpha,Alpha,True,0.021825600000738632,11,False,1
11011,training_phase_1,2,5,50,materials/images/redA1.png,Alpha,Alpha,True,0.01793080000061309,11,False,2
11011,training_phase_1,2,5,51,materials/images/blueB6.png,Beta,Beta,True,0.3875460000053863,11,False,3
11011,training_phase_1,2,5,52,materials/images/redA2.png,Alpha,Alpha,True,0.3973947999984375,11,False,4
11011,training_phase_1,2,5,53,materials/images/blueB5.png,Beta,Beta,True,0.01905879999685567,11,False,5
11011,training_phase_1,2,5,54,materials/images/redA6.png,Alpha,Alpha,True,1.1998445999997784,11,False,6
11011,training_phase_1,2,5,55,materials/images/blueB1.png,Beta,Beta,True,0.0227725999939139,11,False,7
11011,training_phase_1,2,5,56,materials/images/blueB2.png,Beta,Beta,True,0.018663399998331442,11,False,8
11011,training_phase_1,2,5,57,materials/images/redA4.png,Alpha,Alpha,True,0.3020682999995188,11,False,9
11011,training_phase_1,2,5,58,materials/images/redA5.png,Alpha,Alpha,True,0.31559959999867715,11,False,10
11011,training_phase_1,2,5,59,materials/images/blueB3.png,Beta,Beta,True,0.018341499999223743,11,True,11
11011,training_phase_1,2,5,60,materials/images/blueB4.png,Beta,Beta,True,0.30316750000201864,11,True,12
pnum,phase_id,condition,block_data,trial_num,stim,correct_category,response,hit,rt,criterian,met_criterian,num_correct_in_block
11011,test_phase,2,1,1,materials/images/redA1.png,Alpha,Beta,gen,0.027529300001333468,1,True,1
11011,test_phase,2,1,2,materials/images/redA2.png,Alpha,Alpha,gen,0.4335307999936049,1,True,2
11011,test_phase,2,1,3,materials/images/blueB4.png,Beta,Beta,gen,0.6077399000059813,1,True,3
11011,test_phase,2,1,4,materials/images/redA6.png,Alpha,Beta,gen,0.394776200002525,1,True,4
11011,test_phase,2,1,5,materials/images/yGen4.png,test,Beta,gen,0.027663599998049904,1,True,5
11011,test_phase,2,1,6,materials/images/yGen5.png,test,Beta,gen,0.023876300001575146,1,True,6
11011,test_phase,2,1,7,materials/images/yGen2.png,test,Alpha,gen,0.5516447999980301,1,True,7
11011,test_phase,2,1,8,materials/images/redA4.png,Alpha,Alpha,gen,0.18924790000164649,1,True,8
11011,test_phase,2,1,9,materials/images/redA3.png,Alpha,Alpha,gen,0.431749099996523,1,True,9
11011,test_phase,2,1,10,materials/images/yGen1.png,test,Alpha,gen,0.1616723999977694,1,True,10
11011,test_phase,2,1,11,materials/images/blueB6.png,Beta,Beta,gen,0.018527200001699384,1,True,11
11011,test_phase,2,1,12,materials/images/yGen3.png,test,Beta,gen,0.018358100001933053,1,True,12
11011,test_phase,2,1,13,materials/images/blueB5.png,Beta,Beta,gen,0.02351690000068629,1,True,13
11011,test_phase,2,1,14,materials/images/redA5.png,Alpha,Alpha,gen,0.9057418000011239,1,True,14
11011,test_phase,2,1,15,materials/images/blueB3.png,Beta,Beta,gen,0.023337200000241864,1,True,15
11011,test_phase,2,1,16,materials/images/blueB1.png,Beta,Beta,gen,0.1836031000057119,1,True,16
11011,test_phase,2,1,17,materials/images/blueB2.png,Beta,Beta,gen,0.9324389999965206,1,True,17
pnum,phase_id,condition,block_data,trial_num,stim,correct_category,response,hit,rt,criterian,met_criterian,num_correct_in_block
11011,training_phase_2,2,1,1,materials/images/blueB5.png,Beta,Beta,True,0.029853300002287142,30,False,1
11011,training_phase_2,2,1,2,materials/images/blueB3.png,Beta,Beta,True,0.19629600000189384,30,False,2
11011,training_phase_2,2,1,3,materials/images/greenD3.png,Delta,Beta,False,0.3960365000020829,30,False,2
11011,training_phase_2,2,1,4,materials/images/blueB6.png,Beta,Beta,True,0.12192259999574162,30,False,3
11011,training_phase_2,2,1,5,materials/images/redA6.png,Alpha,Alpha,True,0.04367610000190325,30,False,4
11011,training_phase_2,2,1,6,materials/images/redA2.png,Alpha,Alpha,True,0.3251650000020163,30,False,5
11011,training_phase_2,2,1,7,materials/images/blackG3.png,Gamma,Alpha,False,0.018324899996514432,30,False,5
11011,training_phase_2,2,1,8,materials/images/greenD6.png,Delta,Delta,True,0.46224189999338705,30,False,6
11011,training_phase_2,2,1,9,materials/images/greenD2.png,Delta,Delta,True,0.4992030000066734,30,False,7
11011,training_phase_2,2,1,10,materials/images/greenD5.png,Delta,Beta,False,0.11753880000469508,30,False,7
11011,training_phase_2,2,1,11,materials/images/blackG6.png,Gamma,Beta,False,0.018595000001369044,30,False,7
11011,training_phase_2,2,1,12,materials/images/redA3.png,Alpha,Alpha,True,0.3254617999991751,30,False,8
11011,training_phase_2,2,1,13,materials/images/redA5.png,Alpha,Alpha,True,3.619095100002596,30,False,9
11011,training_phase_2,2,1,14,materials/images/blueB1.png,Beta,Alpha,False,0.5090111999961664,30,False,9
11011,training_phase_2,2,1,15,materials/images/blackG5.png,Gamma,Beta,False,1.787007300001278,30,False,9
11011,training_phase_2,2,1,16,materials/images/redA4.png,Alpha,Alpha,True,1.0369585000007646,30,False,10
11011,training_phase_2,2,1,17,materials/images/blackG2.png,Gamma,Alpha,False,0.2033484999992652,30,False,10
11011,training_phase_2,2,1,18,materials/images/greenD4.png,Delta,Beta,False,1.1470278999986476,30,False,10
11011,training_phase_2,2,1,19,materials/images/blueB2.png,Beta,Alpha,False,0.279721699997026,30,False,10
11011,training_phase_2,2,1,20,materials/images/blueB4.png,Beta,Beta,True,3.103548999999475,30,False,11
11011,training_phase_2,2,1,21,materials/images/greenD1.png,Delta,Delta,True,0.07826380000187783,30,False,12
11011,training_phase_2,2,1,22,materials/images/blackG4.png,Gamma,Gamma,True,0.07570319999649655,30,False,13
11011,training_phase_2,2,1,23,materials/images/blackG1.png,Gamma,Alpha,False,0.10617690000071889,30,False,13
11011,training_phase_2,2,1,24,materials/images/redA1.png,Alpha,Alpha,True,0.16493030000128783,30,False,14
11011,training_phase_2,2,2,25,materials/images/redA3.png,Alpha,Alpha,True,0.01808500000333879,30,False,1
11011,training_phase_2,2,2,26,materials/images/blackG6.png,Gamma,Delta,False,1.6862996999989264,30,False,1
11011,training_phase_2,2,2,27,materials/images/redA1.png,Alpha,Alpha,True,0.11176049999630777,30,False,2
11011,training_phase_2,2,2,28,materials/images/blueB3.png,Beta,Gamma,False,0.09219170000142185,30,False,2
11011,training_phase_2,2,2,29,materials/images/blackG4.png,Gamma,Beta,False,0.3194230999943102,30,False,2
11011,training_phase_2,2,2,30,materials/images/redA2.png,Alpha,Alpha,True,0.40475290000176756,30,False,3
11011,training_phase_2,2,2,31,materials/images/blueB5.png,Beta,Delta,False,0.3429623000047286,30,False,3
11011,training_phase_2,2,2,32,materials/images/redA6.png,Alpha,Delta,False,1.1175984000001336,30,False,3
11011,training_phase_2,2,2,33,materials/images/greenD1.png,Delta,Gamma,False,1.0855205000043497,30,False,3
11011,training_phase_2,2,2,34,materials/images/redA4.png,Alpha,Beta,False,0.7991620000029798,30,False,3
11011,training_phase_2,2,2,35,materials/images/blackG5.png,Gamma,Beta,False,0.08805600000050617,30,False,3
11011,training_phase_2,2,2,36,materials/images/blueB1.png,Beta,Gamma,False,0.9388934000016889,30,False,3
11011,training_phase_2,2,2,37,materials/images/greenD2.png,Delta,Gamma,False,3.4585783000002266,30,False,3
11011,training_phase_2,2,2,38,materials/images/redA5.png,Alpha,Beta,False,4.2285105000046315,30,False,3
11011,training_phase_2,2,2,39,materials/images/blackG3.png,Gamma,Alpha,False,0.04792180000367807,30,False,3
11011,training_phase_2,2,2,40,materials/images/blueB2.png,Beta,Beta,True,0.4134085999976378,30,False,4
11011,training_phase_2,2,2,41,materials/images/greenD6.png,Delta,Beta,False,0.07772329999716021,30,False,4
11011,training_phase_2,2,2,42,materials/images/blackG1.png,Gamma,Alpha,False,0.01805150000291178,30,False,4
11011,training_phase_2,2,2,43,materials/images/greenD4.png,Delta,Beta,False,0.5386953999986872,30,False,4
11011,training_phase_2,2,2,44,materials/images/blueB6.png,Beta,Beta,True,0.19533940000110306,30,False,5
11011,training_phase_2,2,2,45,materials/images/blueB4.png,Beta,Beta,True,0.023124899998947512,30,False,6
11011,training_phase_2,2,2,46,materials/images/greenD3.png,Delta,Gamma,False,0.9408365000053891,30,False,6
11011,training_phase_2,2,2,47,materials/images/blackG2.png,Gamma,Delta,False,1.0162154999998165,30,False,6
11011,training_phase_2,2,2,48,materials/images/greenD5.png,Delta,Delta,True,0.7697162999975262,30,False,7
11012,training_phase_1,1,1,1,materials/images/blueB6.png,Beta,Alpha,False,1.9080973000018275,11,False,0
11012,training_phase_1,1,1,2,materials/images/blueB5.png,Beta,Beta,True,0.02240429999801563,11,False,1
11012,training_phase_1,1,1,3,materials/images/blueB1.png,Beta,Beta,True,0.6223714000007021,11,False,2
11012,training_phase_1,1,1,4,materials/images/redA3.png,Alpha,Beta,False,0.1114092999996501,11,False,2
11012,training_phase_1,1,1,5,materials/images/redA5.png,Alpha,Beta,False,0.30547130000195466,11,False,2
11012,training_phase_1,1,1,6,materials/images/blueB3.png,Beta,Beta,True,1.7785877999995137,11,False,3
11012,training_phase_1,1,1,7,materials/images/redA1.png,Alpha,Alpha,True,0.376021000003675,11,False,4
11012,training_phase_1,1,1,8,materials/images/blueB2.png,Beta,Beta,True,1.2667027999996208,11,False,5
11012,training_phase_1,1,1,9,materials/images/redA6.png,Alpha,Alpha,True,0.28851830000348855,11,False,6
11012,training_phase_1,1,1,10,materials/images/redA4.png,Alpha,Alpha,True,0.5284898999962024,11,False,7
11012,training_phase_1,1,1,11,materials/images/blueB4.png,Beta,Alpha,False,0.057060399994952604,11,False,7
11012,training_phase_1,1,1,12,materials/images/redA2.png,Alpha,Alpha,True,0.04990489999909187,11,False,8
11012,training_phase_1,1,2,13,materials/images/blueB1.png,Beta,Alpha,False,1.6379135999959544,11,False,0
11012,training_phase_1,1,2,14,materials/images/redA1.png,Alpha,Alpha,True,0.35840989999996964,11,False,1
11012,training_phase_1,1,2,15,materials/images/blueB6.png,Beta,Beta,True,0.7292123000006541,11,False,2
11012,training_phase_1,1,2,16,materials/images/blueB2.png,Beta,Beta,True,0.5090954999977839,11,False,3
11012,training_phase_1,1,2,17,materials/images/redA5.png,Alpha,Alpha,True,0.45351210000080755,11,False,4
11012,training_phase_1,1,2,18,materials/images/blueB3.png,Beta,Beta,True,0.022630100000242237,11,False,5
11012,training_phase_1,1,2,19,materials/images/redA3.png,Alpha,Alpha,True,0.3033022000017809,11,False,6
11012,training_phase_1,1,2,20,materials/images/redA2.png,Alpha,Alpha,True,0.5958200999957626,11,False,7
11012,training_phase_1,1,2,21,materials/images/redA4.png,Alpha,Alpha,True,2.5279295000000275,11,False,8
11012,training_phase_1,1,2,22,materials/images/blueB4.png,Beta,Beta,True,1.3515698999981396,11,False,9
11012,training_phase_1,1,2,23,materials/images/blueB5.png,Beta,Alpha,False,0.20503349999489728,11,False,9
11012,training_phase_1,1,2,24,materials/images/redA6.png,Alpha,Alpha,True,0.01806429999851389,11,False,10
11012,training_phase_1,1,3,25,materials/images/blueB3.png,Beta,Alpha,False,0.8775384000036865,11,False,0
11012,training_phase_1,1,3,26,materials/images/redA6.png,Alpha,Beta,False,0.30180960000143386,11,False,0
11012,training_phase_1,1,3,27,materials/images/blueB5.png,Beta,Beta,True,0.7370773999937228,11,False,1
11012,training_phase_1,1,3,28,materials/images/redA5.png,Alpha,Alpha,True,4.284129600004235,11,False,2
11012,training_phase_1,1,3,29,materials/images/redA1.png,Alpha,Alpha,True,0.2670711999962805,11,False,3
11012,training_phase_1,1,3,30,materials/images/blueB1.png,Beta,Beta,True,0.20965720000094734,11,False,4
11012,training_phase_1,1,3,31,materials/images/redA3.png,Alpha,Alpha,True,1.006571999998414,11,False,5
11012,training_phase_1,1,3,32,materials/images/redA4.png,Alpha,Alpha,True,0.6911496999964584,11,False,6
11012,training_phase_1,1,3,33,materials/images/blueB4.png,Beta,Beta,True,0.5226359000007506,11,False,7
11012,training_phase_1,1,3,34,materials/images/redA2.png,Alpha,Alpha,True,0.04638780000095721,11,False,8
11012,training_phase_1,1,3,35,materials/images/blueB2.png,Beta,Beta,True,0.1518374999941443,11,False,9
11012,training_phase_1,1,3,36,materials/images/blueB6.png,Beta,Beta,True,0.28469089999998687,11,False,10
11012,training_phase_1,1,4,37,materials/images/redA4.png,Alpha,Alpha,True,1.5408779000063078,11,False,1
11012,training_phase_1,1,4,38,materials/images/redA1.png,Alpha,Alpha,True,0.2492322000034619,11,False,2
11012,training_phase_1,1,4,39,materials/images/blueB1.png,Beta,Beta,True,1.1308938000001945,11,False,3
11012,training_phase_1,1,4,40,materials/images/blueB4.png,Beta,Beta,True,0.6276498000006541,11,False,4
11012,training_phase_1,1,4,41,materials/images/redA5.png,Alpha,Alpha,True,0.3052670999968541,11,False,5
11012,training_phase_1,1,4,42,materials/images/blueB2.png,Beta,Beta,True,0.567671299999347,11,False,6
11012,training_phase_1,1,4,43,materials/images/redA2.png,Alpha,Alpha,True,0.5231792000049609,11,False,7
11012,training_phase_1,1,4,44,materials/images/blueB5.png,Beta,Beta,True,0.3195160000032047,11,False,8
11012,training_phase_1,1,4,45,materials/images/blueB3.png,Beta,Beta,True,0.37552359999972396,11,False,9
11012,training_phase_1,1,4,46,materials/images/redA6.png,Alpha,Beta,False,0.8717917999965721,11,False,9
11012,training_phase_1,1,4,47,materials/images/redA3.png,Alpha,Alpha,True,0.018721000000368804,11,False,10
11012,training_phase_1,1,4,48,materials/images/blueB6.png,Beta,Beta,True,1.3404874999978347,11,True,11
pnum,phase_id,condition,block_data,trial_num,stim,correct_category,response,hit,rt,criterian,met_criterian,num_correct_in_block
11012,test_phase,1,1,1,materials/images/redA4.png,Alpha,Alpha,gen,1.3342164999994566,1,True,1
11012,test_phase,1,1,2,materials/images/blueB3.png,Beta,Beta,gen,0.5374059000023408,1,True,2
11012,test_phase,1,1,3,materials/images/blueB1.png,Beta,Beta,gen,0.03172720000293339,1,True,3
11012,test_phase,1,1,4,materials/images/yGen1.png,test,Alpha,gen,0.8887923000002047,1,True,4
11012,test_phase,1,1,5,materials/images/yGen2.png,test,Beta,gen,0.16526149999845074,1,True,5
11012,test_phase,1,1,6,materials/images/blueB4.png,Beta,Beta,gen,0.19632090000231983,1,True,6
11012,test_phase,1,1,7,materials/images/blueB2.png,Beta,Alpha,gen,0.02290829999401467,1,True,7
11012,test_phase,1,1,8,materials/images/yGen4.png,test,Beta,gen,0.15615909999905853,1,True,8
11012,test_phase,1,1,9,materials/images/redA6.png,Alpha,Alpha,gen,0.7347834999964107,1,True,9
11012,test_phase,1,1,10,materials/images/redA1.png,Alpha,Alpha,gen,0.5497743000014452,1,True,10
11012,test_phase,1,1,11,materials/images/yGen5.png,test,Beta,gen,0.019052700001338962,1,True,11
11012,test_phase,1,1,12,materials/images/redA5.png,Alpha,Alpha,gen,0.1901990999976988,1,True,12
11012,test_phase,1,1,13,materials/images/blueB5.png,Beta,Alpha,gen,0.07676830000127666,1,True,13
11012,test_phase,1,1,14,materials/images/yGen3.png,test,Beta,gen,0.023581500005093403,1,True,14
11012,test_phase,1,1,15,materials/images/redA3.png,Alpha,Alpha,gen,0.24444690000382252,1,True,15
11012,test_phase,1,1,16,materials/images/blueB6.png,Beta,Beta,gen,3.335604099993361,1,True,16
11012,test_phase,1,1,17,materials/images/redA2.png,Alpha,Alpha,gen,0.12174360000062734,1,True,17
pnum,phase_id,condition,block_data,trial_num,stim,correct_category,response,hit,rt,criterian,met_criterian,num_correct_in_block
11012,training_phase_2,1,1,1,materials/images/redA3.png,Alpha,Alpha,True,0.9101118000035058,30,False,1
11012,training_phase_2,1,1,2,materials/images/blackG3.png,Gamma,Beta,False,0.01801839999825461,30,False,1
11012,training_phase_2,1,1,3,materials/images/blackG6.png,Gamma,Gamma,True,1.1453121999948053,30,False,2
11012,training_phase_2,1,1,4,materials/images/blueB2.png,Beta,Beta,True,1.5160698000036064,30,False,3
11012,training_phase_2,1,1,5,materials/images/greenD6.png,Delta,Beta,False,0.12014910000289092,30,False,3
11012,training_phase_2,1,1,6,materials/images/redA5.png,Alpha,Alpha,True,1.243580499998643,30,False,4
11012,training_phase_2,1,1,7,materials/images/redA2.png,Alpha,Alpha,True,0.1485871999975643,30,False,5
11012,training_phase_2,1,1,8,materials/images/greenD3.png,Delta,Delta,True,0.410826300001645,30,False,6
11012,training_phase_2,1,1,9,materials/images/blueB3.png,Beta,Delta,False,1.5316820000007283,30,False,6
11012,training_phase_2,1,1,10,materials/images/blueB4.png,Beta,Alpha,False,0.6891092000005301,30,False,6
11012,training_phase_2,1,1,11,materials/images/greenD1.png,Delta,Gamma,False,2.203411900001811,30,False,6
11012,training_phase_2,1,1,12,materials/images/blueB6.png,Beta,Delta,False,0.20943480000278214,30,False,6
11012,training_phase_2,1,1,13,materials/images/blueB5.png,Beta,Alpha,False,0.5177043000003323,30,False,6
