pnum,phase_id,condition,block_data,trial_num,stim,correct_category,response,hit,rt,criterian,met_criterian,num_correct_in_block
11008,training_phase_1,1,1,1,materials/images/redA2.png,Alpha,1,1,1.5336674,11,FALSE,1
11008,training_phase_1,1,1,2,materials/images/redA1.png,Alpha,1,1,1.3831178,11,FALSE,2
11008,training_phase_1,1,1,3,materials/images/redA6.png,Alpha,0,0,0.252389399,11,FALSE,2
11008,training_phase_1,1,1,4,materials/images/blueB2.png,Beta,1,0,0.3481977,11,FALSE,2
11008,training_phase_1,1,1,5,materials/images/redA3.png,Alpha,1,1,1.312043,11,FALSE,3
11008,training_phase_1,1,1,6,materials/images/blueB4.png,Beta,0,1,0.0231279,11,FALSE,4
11008,training_phase_1,1,1,7,materials/images/redA5.png,Alpha,1,1,0.540248,11,FALSE,5
11008,training_phase_1,1,1,8,materials/images/blueB1.png,Beta,0,1,0.2030122,11,FALSE,6
11008,training_phase_1,1,1,9,materials/images/blueB5.png,Beta,0,1,0.022549001,11,FALSE,7
11008,training_phase_1,1,1,10,materials/images/blueB6.png,Beta,1,0,0.017880999,11,FALSE,7
11008,training_phase_1,1,1,11,materials/images/redA4.png,Alpha,1,1,0.0686093,11,FALSE,8
11008,training_phase_1,1,1,12,materials/images/blueB3.png,Beta,1,0,0.0229391,11,FALSE,8
11008,training_phase_1,1,2,13,materials/images/redA1.png,Alpha,0,0,0.1640502,11,FALSE,0
11008,training_phase_1,1,2,14,materials/images/redA6.png,Alpha,0,0,1.3344666,11,FALSE,0
11008,training_phase_1,1,2,15,materials/images/redA2.png,Alpha,1,1,0.9163216,11,FALSE,1
11008,training_phase_1,1,2,16,materials/images/blueB3.png,Beta,0,1,0.4600182,11,FALSE,2
11008,training_phase_1,1,2,17,materials/images/redA5.png,Alpha,0,0,0.2884833,11,FALSE,2
11008,training_phase_1,1,2,18,materials/images/blueB2.png,Beta,0,1,0.3411492,11,FALSE,3
11008,training_phase_1,1,2,19,materials/images/blueB5.png,Beta,1,0,0.6592735,11,FALSE,3
11008,training_phase_1,1,2,20,materials/images/blueB4.png,Beta,1,0,0.1692547,11,FALSE,3
11008,training_phase_1,1,2,21,materials/images/blueB6.png,Beta,0,1,0.251999101,11,FALSE,4
11008,training_phase_1,1,2,22,materials/images/redA3.png,Alpha,1,1,0.0183735,11,FALSE,5
11008,training_phase_1,1,2,23,materials/images/blueB1.png,Beta,0,1,1.3654346,11,FALSE,6
11008,training_phase_1,1,2,24,materials/images/redA4.png,Alpha,1,1,0.0427611,11,FALSE,7
11008,training_phase_1,1,3,25,materials/images/blueB6.png,Beta,0,1,0.5358646,11,FALSE,1
11008,training_phase_1,1,3,26,materials/images/blueB3.png,Beta,1,0,0.365404801,11,FALSE,1
11008,training_phase_1,1,3,27,materials/images/redA4.png,Alpha,1,1,0.3125626,11,FALSE,2
11008,training_phase_1,1,3,28,materials/images/redA1.png,Alpha,1,1,0.7328641,11,FALSE,3
11008,training_phase_1,1,3,29,materials/images/blueB2.png,Beta,0,1,0.0232845,11,FALSE,4
11008,training_phase_1,1,3,30,materials/images/redA5.png,Alpha,1,1,0.018624799,11,FALSE,5
11008,training_phase_1,1,3,31,materials/images/blueB4.png,Beta,1,0,0.022921,11,FALSE,5
11008,training_phase_1,1,3,32,materials/images/blueB1.png,Beta,0,1,0.1063178,11,FALSE,6
11008,training_phase_1,1,3,33,materials/images/blueB5.png,Beta,0,1,0.149013,11,FALSE,7
11008,training_phase_1,1,3,34,materials/images/redA2.png,Alpha,1,1,0.3677564,11,FALSE,8
11008,training_phase_1,1,3,35,materials/images/redA6.png,Alpha,0,0,0.1374982,11,FALSE,8
11008,training_phase_1,1,3,36,materials/images/redA3.png,Alpha,1,1,0.0231234,11,FALSE,9
11008,training_phase_1,1,4,37,materials/images/blueB6.png,Beta,0,1,0.1551436,11,FALSE,1
11008,training_phase_1,1,4,38,materials/images/blueB3.png,Beta,0,1,0.0183286,11,FALSE,2
11008,training_phase_1,1,4,39,materials/images/blueB1.png,Beta,0,1,0.3078634,11,FALSE,3
11008,training_phase_1,1,4,40,materials/images/redA2.png,Alpha,1,1,0.0189773,11,FALSE,4
11008,training_phase_1,1,4,41,materials/images/blueB4.png,Beta,0,1,0.5415907,11,FALSE,5
11008,training_phase_1,1,4,42,materials/images/redA3.png,Alpha,1,1,0.0230969,11,FALSE,6
11008,training_phase_1,1,4,43,materials/images/redA6.png,Alpha,0,0,0.2212717,11,FALSE,6
11008,training_phase_1,1,4,44,materials/images/redA1.png,Alpha,1,1,0.144670101,11,FALSE,7
11008,training_phase_1,1,4,45,materials/images/redA4.png,Alpha,0,0,0.1957135,11,FALSE,7
11008,training_phase_1,1,4,46,materials/images/blueB5.png,Beta,0,1,0.2214265,11,FALSE,8
11008,training_phase_1,1,4,47,materials/images/redA5.png,Alpha,1,1,0.150778,11,FALSE,9
11008,training_phase_1,1,4,48,materials/images/blueB2.png,Beta,0,1,0.0678041,11,FALSE,10
11008,training_phase_1,1,5,49,materials/images/blueB1.png,Beta,0,1,0.0240141,11,FALSE,1
11008,training_phase_1,1,5,50,materials/images/redA6.png,Alpha,1,1,0.6483336,11,FALSE,2
11008,training_phase_1,1,5,51,materials/images/blueB6.png,Beta,0,1,0.2073401,11,FALSE,3
11008,training_phase_1,1,5,52,materials/images/redA2.png,Alpha,1,1,0.2404176,11,FALSE,4
11008,training_phase_1,1,5,53,materials/images/redA4.png,Alpha,0,0,1.812604,11,FALSE,4
11008,training_phase_1,1,5,54,materials/images/blueB5.png,Beta,0,1,0.4680391,11,FALSE,5
11008,training_phase_1,1,5,55,materials/images/blueB3.png,Beta,0,1,0.172502601,11,FALSE,6
11008,training_phase_1,1,5,56,materials/images/redA5.png,Alpha,0,0,0.0183615,11,FALSE,6
11008,training_phase_1,1,5,57,materials/images/blueB2.png,Beta,0,1,0.0227969,11,FALSE,7
11008,training_phase_1,1,5,58,materials/images/redA3.png,Alpha,1,1,0.8511674,11,FALSE,8
11008,training_phase_1,1,5,59,materials/images/redA1.png,Alpha,1,1,0.1673058,11,FALSE,9
11008,training_phase_1,1,5,60,materials/images/blueB4.png,Beta,0,1,0.3284008,11,FALSE,10
11008,training_phase_1,1,6,61,materials/images/redA5.png,Alpha,1,1,0.6576547,11,FALSE,1
11008,training_phase_1,1,6,62,materials/images/blueB6.png,Beta,0,1,0.018552399,11,FALSE,2
11008,training_phase_1,1,6,63,materials/images/blueB4.png,Beta,0,1,0.0186681,11,FALSE,3
11008,training_phase_1,1,6,64,materials/images/blueB1.png,Beta,0,1,0.0238905,11,FALSE,4
11008,training_phase_1,1,6,65,materials/images/blueB3.png,Beta,0,1,0.043080499,11,FALSE,5
11008,training_phase_1,1,6,66,materials/images/redA4.png,Alpha,1,1,0.0537521,11,FALSE,6
11008,training_phase_1,1,6,67,materials/images/blueB5.png,Beta,0,1,0.3964708,11,FALSE,7
11008,training_phase_1,1,6,68,materials/images/redA3.png,Alpha,0,0,0.0181732,11,FALSE,7
11008,training_phase_1,1,6,69,materials/images/redA2.png,Alpha,0,0,0.1245848,11,FALSE,7
11008,training_phase_1,1,6,70,materials/images/blueB2.png,Beta,0,1,0.176604,11,FALSE,8
11008,training_phase_1,1,6,71,materials/images/redA6.png,Alpha,1,1,0.1881106,11,FALSE,9
11008,training_phase_1,1,6,72,materials/images/redA1.png,Alpha,1,1,0.0259253,11,FALSE,10
11008,training_phase_1,1,7,73,materials/images/blueB6.png,Beta,0,1,0.568415601,11,FALSE,1
11008,training_phase_1,1,7,74,materials/images/blueB4.png,Beta,1,0,0.0179953,11,FALSE,1
11008,training_phase_1,1,7,75,materials/images/redA3.png,Alpha,1,1,0.072204201,11,FALSE,2
11008,training_phase_1,1,7,76,materials/images/redA6.png,Alpha,0,0,0.191066201,11,FALSE,2
11008,training_phase_1,1,7,77,materials/images/blueB1.png,Beta,0,1,0.0228468,11,FALSE,3
11008,training_phase_1,1,7,78,materials/images/blueB2.png,Beta,0,1,0.0179371,11,FALSE,4
11008,training_phase_1,1,7,79,materials/images/blueB5.png,Beta,1,0,0.0187563,11,FALSE,4
11008,training_phase_1,1,7,80,materials/images/redA5.png,Alpha,1,1,0.022514,11,FALSE,5
11008,training_phase_1,1,7,81,materials/images/redA4.png,Alpha,1,1,0.332612799,11,FALSE,6
11008,training_phase_1,1,7,82,materials/images/redA2.png,Alpha,0,0,0.4093557,11,FALSE,6
11008,training_phase_1,1,7,83,materials/images/redA1.png,Alpha,1,1,0.1026648,11,FALSE,7
11008,training_phase_1,1,7,84,materials/images/blueB3.png,Beta,0,1,0.6123879,11,FALSE,8
11008,training_phase_1,1,8,85,materials/images/redA1.png,Alpha,1,1,0.2256324,11,FALSE,1
11008,training_phase_1,1,8,86,materials/images/blueB6.png,Beta,0,1,0.023593199,11,FALSE,2
11008,training_phase_1,1,8,87,materials/images/blueB3.png,Beta,0,1,0.972843001,11,FALSE,3
11008,training_phase_1,1,8,88,materials/images/blueB2.png,Beta,0,1,1.1294769,11,FALSE,4
11008,training_phase_1,1,8,89,materials/images/redA5.png,Alpha,1,1,1.464999099,11,FALSE,5
11008,training_phase_1,1,8,90,materials/images/blueB1.png,Beta,0,1,0.9606266,11,FALSE,6
11008,training_phase_1,1,8,91,materials/images/redA2.png,Alpha,1,1,0.0182279,11,FALSE,7
11008,training_phase_1,1,8,92,materials/images/redA4.png,Alpha,1,1,0.2804513,11,FALSE,8
11008,training_phase_1,1,8,93,materials/images/redA3.png,Alpha,1,1,0.5264529,11,FALSE,9
11008,training_phase_1,1,8,94,materials/images/blueB4.png,Beta,0,1,0.7342034,11,FALSE,10
11008,training_phase_1,1,8,95,materials/images/redA6.png,Alpha,0,0,0.0420945,11,FALSE,10
11008,training_phase_1,1,8,96,materials/images/blueB5.png,Beta,0,1,0.0225726,11,TRUE,11
11008,test_phase,1,1,1,materials/images/blueB6.png,Beta,0,2,0.0227583,1,TRUE,1
11008,test_phase,1,1,2,materials/images/yGen4.png,test,0,2,0.903645201,1,TRUE,2
11008,test_phase,1,1,3,materials/images/redA6.png,Alpha,1,2,0.7500667,1,TRUE,3
11008,test_phase,1,1,4,materials/images/redA5.png,Alpha,1,2,1.4773925,1,TRUE,4
11008,test_phase,1,1,5,materials/images/blueB3.png,Beta,0,2,0.0230612,1,TRUE,5
11008,test_phase,1,1,6,materials/images/redA4.png,Alpha,0,2,0.968597,1,TRUE,6
11008,test_phase,1,1,7,materials/images/yGen3.png,test,0,2,0.4737148,1,TRUE,7
11008,test_phase,1,1,8,materials/images/blueB5.png,Beta,0,2,0.0185517,1,TRUE,8
11008,test_phase,1,1,9,materials/images/blueB4.png,Beta,1,2,0.3869838,1,TRUE,9
11008,test_phase,1,1,10,materials/images/yGen2.png,test,1,2,0.4943866,1,TRUE,10
11008,test_phase,1,1,11,materials/images/blueB1.png,Beta,0,2,0.0297887,1,TRUE,11
11008,test_phase,1,1,12,materials/images/redA1.png,Alpha,1,2,2.162218,1,TRUE,12
11008,test_phase,1,1,13,materials/images/redA3.png,Alpha,1,2,0.5438293,1,TRUE,13
11008,test_phase,1,1,14,materials/images/yGen5.png,test,0,2,0.2766108,1,TRUE,14
11008,test_phase,1,1,15,materials/images/yGen1.png,test,0,2,0.0772805,1,TRUE,15
11008,test_phase,1,1,16,materials/images/blueB2.png,Beta,0,2,1.8890881,1,TRUE,16
11008,test_phase,1,1,17,materials/images/redA2.png,Alpha,1,2,0.0181256,1,TRUE,17
11008,training_phase_2,1,1,1,materials/images/blackG3.png,Gamma,1,0,2.166901399,30,FALSE,0
11008,training_phase_2,1,1,2,materials/images/redA1.png,Alpha,3,0,0.4354261,30,FALSE,0
11008,training_phase_2,1,1,3,materials/images/blueB5.png,Beta,0,1,0.0227181,30,FALSE,1
11008,training_phase_2,1,1,4,materials/images/blackG1.png,Gamma,3,0,0.6931493,30,FALSE,1
11008,training_phase_2,1,1,5,materials/images/blueB3.png,Beta,0,1,1.3625923,30,FALSE,2
11008,training_phase_2,1,1,6,materials/images/blueB2.png,Beta,2,0,0.022961199,30,FALSE,2
11008,training_phase_2,1,1,7,materials/images/greenD5.png,Delta,3,1,0.5409567,30,FALSE,3
11008,training_phase_2,1,1,8,materials/images/blueB4.png,Beta,3,0,0.0188761,30,FALSE,3
11008,training_phase_2,1,1,9,materials/images/blackG2.png,Gamma,0,0,0.3019373,30,FALSE,3
11008,training_phase_2,1,1,10,materials/images/greenD1.png,Delta,0,0,0.5467419,30,FALSE,3
11008,training_phase_2,1,1,11,materials/images/greenD3.png,Delta,3,1,0.024048,30,FALSE,4
11008,training_phase_2,1,1,12,materials/images/redA5.png,Alpha,2,0,0.538099499,30,FALSE,4
11008,training_phase_2,1,1,13,materials/images/redA2.png,Alpha,1,1,0.5084874,30,FALSE,5
11008,training_phase_2,1,1,14,materials/images/greenD4.png,Delta,0,0,0.2607427,30,FALSE,5
11008,training_phase_2,1,1,15,materials/images/redA6.png,Alpha,0,0,0.2368276,30,FALSE,5
11008,training_phase_2,1,1,16,materials/images/blackG5.png,Gamma,3,0,0.0240008,30,FALSE,5
11008,training_phase_2,1,1,17,materials/images/blueB6.png,Beta,2,0,0.2437084,30,FALSE,5
11008,training_phase_2,1,1,18,materials/images/greenD6.png,Delta,0,0,0.1279692,30,FALSE,5
11008,training_phase_2,1,1,19,materials/images/blackG4.png,Gamma,2,1,0.5594614,30,FALSE,6
11008,training_phase_2,1,1,20,materials/images/redA4.png,Alpha,0,0,0.0183692,30,FALSE,6
11008,training_phase_2,1,1,21,materials/images/greenD2.png,Delta,3,1,0.0230342,30,FALSE,7
11008,training_phase_2,1,1,22,materials/images/blackG6.png,Gamma,2,1,0.148517,30,FALSE,8
11008,training_phase_2,1,1,23,materials/images/redA3.png,Alpha,1,1,1.0759984,30,FALSE,9
11008,training_phase_2,1,1,24,materials/images/blueB1.png,Beta,0,1,1.2873076,30,FALSE,10
11008,training_phase_2,1,2,25,materials/images/blueB4.png,Beta,1,0,0.3128886,30,FALSE,0
11008,training_phase_2,1,2,26,materials/images/blackG6.png,Gamma,3,0,0.7033034,30,FALSE,0
11008,training_phase_2,1,2,27,materials/images/redA1.png,Alpha,1,1,0.311423399,30,FALSE,1
11008,training_phase_2,1,2,28,materials/images/greenD4.png,Delta,3,1,0.420870801,30,FALSE,2
11008,training_phase_2,1,2,29,materials/images/blueB6.png,Beta,0,1,0.2914701,30,FALSE,3
11008,training_phase_2,1,2,30,materials/images/blackG5.png,Gamma,2,1,1.5996721,30,FALSE,4
11008,training_phase_2,1,2,31,materials/images/redA5.png,Alpha,1,1,0.7729255,30,FALSE,5
11008,training_phase_2,1,2,32,materials/images/blackG1.png,Gamma,0,0,1.6064051,30,FALSE,5
11008,training_phase_2,1,2,33,materials/images/greenD5.png,Delta,3,1,0.04917,30,FALSE,6
11008,training_phase_2,1,2,34,materials/images/blueB3.png,Beta,2,0,0.5409601,30,FALSE,6
11008,training_phase_2,1,2,35,materials/images/blueB5.png,Beta,0,1,1.3973061,30,FALSE,7
11008,training_phase_2,1,2,36,materials/images/greenD3.png,Delta,3,1,0.3903333,30,FALSE,8
11008,training_phase_2,1,2,37,materials/images/greenD6.png,Delta,3,1,0.368116501,30,FALSE,9
11008,training_phase_2,1,2,38,materials/images/greenD2.png,Delta,3,1,0.2372755,30,FALSE,10
11008,training_phase_2,1,2,39,materials/images/blueB1.png,Beta,0,1,0.3464269,30,FALSE,11
11008,training_phase_2,1,2,40,materials/images/redA2.png,Alpha,1,1,0.0653055,30,FALSE,12
11008,training_phase_2,1,2,41,materials/images/blackG3.png,Gamma,2,1,0.094389,30,FALSE,13
11008,training_phase_2,1,2,42,materials/images/redA4.png,Alpha,1,1,0.5210013,30,FALSE,14
11008,training_phase_2,1,2,43,materials/images/blackG4.png,Gamma,2,1,0.266524499,30,FALSE,15
11008,training_phase_2,1,2,44,materials/images/greenD1.png,Delta,0,0,0.4572905,30,FALSE,15
11008,training_phase_2,1,2,45,materials/images/blueB2.png,Beta,0,1,2.218642999,30,FALSE,16
11008,training_phase_2,1,2,46,materials/images/redA3.png,Alpha,1,1,0.039113199,30,FALSE,17
11008,training_phase_2,1,2,47,materials/images/redA6.png,Alpha,3,0,0.261845901,30,FALSE,17
11008,training_phase_2,1,2,48,materials/images/blackG2.png,Gamma,0,0,0.209044,30,FALSE,17
11012,training_phase_1,1,1,1,materials/images/blueB6.png,Beta,1,0,1.9080973,11,FALSE,0
11012,training_phase_1,1,1,2,materials/images/blueB5.png,Beta,0,1,0.0224043,11,FALSE,1
11012,training_phase_1,1,1,3,materials/images/blueB1.png,Beta,0,1,0.6223714,11,FALSE,2
11012,training_phase_1,1,1,4,materials/images/redA3.png,Alpha,0,0,0.1114093,11,FALSE,2
11012,training_phase_1,1,1,5,materials/images/redA5.png,Alpha,0,0,0.3054713,11,FALSE,2
11012,training_phase_1,1,1,6,materials/images/blueB3.png,Beta,0,1,1.7785878,11,FALSE,3
11012,training_phase_1,1,1,7,materials/images/redA1.png,Alpha,1,1,0.376021,11,FALSE,4
11012,training_phase_1,1,1,8,materials/images/blueB2.png,Beta,0,1,1.2667028,11,FALSE,5
11012,training_phase_1,1,1,9,materials/images/redA6.png,Alpha,1,1,0.2885183,11,FALSE,6
11012,training_phase_1,1,1,10,materials/images/redA4.png,Alpha,1,1,0.5284899,11,FALSE,7
11012,training_phase_1,1,1,11,materials/images/blueB4.png,Beta,1,0,0.0570604,11,FALSE,7
11012,training_phase_1,1,1,12,materials/images/redA2.png,Alpha,1,1,0.0499049,11,FALSE,8
11012,training_phase_1,1,2,13,materials/images/blueB1.png,Beta,1,0,1.6379136,11,FALSE,0
11012,training_phase_1,1,2,14,materials/images/redA1.png,Alpha,1,1,0.3584099,11,FALSE,1
11012,training_phase_1,1,2,15,materials/images/blueB6.png,Beta,0,1,0.7292123,11,FALSE,2
11012,training_phase_1,1,2,16,materials/images/blueB2.png,Beta,0,1,0.5090955,11,FALSE,3
11012,training_phase_1,1,2,17,materials/images/redA5.png,Alpha,1,1,0.4535121,11,FALSE,4
11012,training_phase_1,1,2,18,materials/images/blueB3.png,Beta,0,1,0.0226301,11,FALSE,5
11012,training_phase_1,1,2,19,materials/images/redA3.png,Alpha,1,1,0.3033022,11,FALSE,6
11012,training_phase_1,1,2,20,materials/images/redA2.png,Alpha,1,1,0.5958201,11,FALSE,7
11012,training_phase_1,1,2,21,materials/images/redA4.png,Alpha,1,1,2.5279295,11,FALSE,8
11012,training_phase_1,1,2,22,materials/images/blueB4.png,Beta,0,1,1.3515699,11,FALSE,9
11012,training_phase_1,1,2,23,materials/images/blueB5.png,Beta,1,0,0.2050335,11,FALSE,9
11012,training_phase_1,1,2,24,materials/images/redA6.png,Alpha,1,1,0.0180643,11,FALSE,10
11012,training_phase_1,1,3,25,materials/images/blueB3.png,Beta,1,0,0.8775384,11,FALSE,0
11012,training_phase_1,1,3,26,materials/images/redA6.png,Alpha,0,0,0.3018096,11,FALSE,0
11012,training_phase_1,1,3,27,materials/images/blueB5.png,Beta,0,1,0.7370774,11,FALSE,1
11012,training_phase_1,1,3,28,materials/images/redA5.png,Alpha,1,1,4.2841296,11,FALSE,2
11012,training_phase_1,1,3,29,materials/images/redA1.png,Alpha,1,1,0.2670712,11,FALSE,3
11012,training_phase_1,1,3,30,materials/images/blueB1.png,Beta,0,1,0.2096572,11,FALSE,4
11012,training_phase_1,1,3,31,materials/images/redA3.png,Alpha,1,1,1.006572,11,FALSE,5
11012,training_phase_1,1,3,32,materials/images/redA4.png,Alpha,1,1,0.6911497,11,FALSE,6
11012,training_phase_1,1,3,33,materials/images/blueB4.png,Beta,0,1,0.5226359,11,FALSE,7
11012,training_phase_1,1,3,34,materials/images/redA2.png,Alpha,1,1,0.0463878,11,FALSE,8
11012,training_phase_1,1,3,35,materials/images/blueB2.png,Beta,0,1,0.1518375,11,FALSE,9
11012,training_phase_1,1,3,36,materials/images/blueB6.png,Beta,0,1,0.2846909,11,FALSE,10
11012,training_phase_1,1,4,37,materials/images/redA4.png,Alpha,1,1,1.5408779,11,FALSE,1
11012,training_phase_1,1,4,38,materials/images/redA1.png,Alpha,1,1,0.2492322,11,FALSE,2
11012,training_phase_1,1,4,39,materials/images/blueB1.png,Beta,0,1,1.1308938,11,FALSE,3
11012,training_phase_1,1,4,40,materials/images/blueB4.png,Beta,0,1,0.6276498,11,FALSE,4
11012,training_phase_1,1,4,41,materials/images/redA5.png,Alpha,1,1,0.3052671,11,FALSE,5
11012,training_phase_1,1,4,42,materials/images/blueB2.png,Beta,0,1,0.5676713,11,FALSE,6
11012,training_phase_1,1,4,43,materials/images/redA2.png,Alpha,1,1,0.5231792,11,FALSE,7
11012,training_phase_1,1,4,44,materials/images/blueB5.png,Beta,0,1,0.319516,11,FALSE,8
11012,training_phase_1,1,4,45,materials/images/blueB3.png,Beta,0,1,0.3755236,11,FALSE,9
11012,training_phase_1,1,4,46,materials/images/redA6.png,Alpha,0,0,0.8717918,11,FALSE,9
11012,training_phase_1,1,4,47,materials/images/redA3.png,Alpha,1,1,0.018721,11,FALSE,10
11012,training_phase_1,1,4,48,materials/images/blueB6.png,Beta,0,1,1.3404875,11,TRUE,11
11012,test_phase,1,1,1,materials/images/redA4.png,Alpha,1,2,1.3342165,1,TRUE,1
11012,test_phase,1,1,2,materials/images/blueB3.png,Beta,0,2,0.5374059,1,TRUE,2
11012,test_phase,1,1,3,materials/images/blueB1.png,Beta,0,2,0.0317272,1,TRUE,3
11012,test_phase,1,1,4,materials/images/yGen1.png,test,1,2,0.8887923,1,TRUE,4
11012,test_phase,1,1,5,materials/images/yGen2.png,test,0,2,0.1652615,1,TRUE,5
11012,test_phase,1,1,6,materials/images/blueB4.png,Beta,0,2,0.1963209,1,TRUE,6
11012,test_phase,1,1,7,materials/images/blueB2.png,Beta,1,2,0.0229083,1,TRUE,7
11012,test_phase,1,1,8,materials/images/yGen4.png,test,0,2,0.1561591,1,TRUE,8
11012,test_phase,1,1,9,materials/images/redA6.png,Alpha,1,2,0.7347835,1,TRUE,9
11012,test_phase,1,1,10,materials/images/redA1.png,Alpha,1,2,0.5497743,1,TRUE,10
11012,test_phase,1,1,11,materials/images/yGen5.png,test,0,2,0.0190527,1,TRUE,11
11012,test_phase,1,1,12,materials/images/redA5.png,Alpha,1,2,0.1901991,1,TRUE,12
11012,test_phase,1,1,13,materials/images/blueB5.png,Beta,1,2,0.0767683,1,TRUE,13
11012,test_phase,1,1,14,materials/images/yGen3.png,test,0,2,0.0235815,1,TRUE,14
11012,test_phase,1,1,15,materials/images/redA3.png,Alpha,1,2,0.2444469,1,TRUE,15
11012,test_phase,1,1,16,materials/images/blueB6.png,Beta,0,2,3.3356041,1,TRUE,16
11012,test_phase,1,1,17,materials/images/redA2.png,Alpha,1,2,0.1217436,1,TRUE,17
11012,training_phase_2,1,1,1,materials/images/redA3.png,Alpha,1,1,0.9101118,30,FALSE,1
11012,training_phase_2,1,1,2,materials/images/blackG3.png,Gamma,0,0,0.0180184,30,FALSE,1
11012,training_phase_2,1,1,3,materials/images/blackG6.png,Gamma,2,1,1.1453122,30,FALSE,2
11012,training_phase_2,1,1,4,materials/images/blueB2.png,Beta,0,1,1.5160698,30,FALSE,3
11012,training_phase_2,1,1,5,materials/images/greenD6.png,Delta,0,0,0.1201491,30,FALSE,3
11012,training_phase_2,1,1,6,materials/images/redA5.png,Alpha,1,1,1.2435805,30,FALSE,4
11012,training_phase_2,1,1,7,materials/images/redA2.png,Alpha,1,1,0.1485872,30,FALSE,5
11012,training_phase_2,1,1,8,materials/images/greenD3.png,Delta,3,1,0.4108263,30,FALSE,6
11012,training_phase_2,1,1,9,materials/images/blueB3.png,Beta,3,0,1.531682,30,FALSE,6
11012,training_phase_2,1,1,10,materials/images/blueB4.png,Beta,1,0,0.6891092,30,FALSE,6
11012,training_phase_2,1,1,11,materials/images/greenD1.png,Delta,2,0,2.2034119,30,FALSE,6
11012,training_phase_2,1,1,12,materials/images/blueB6.png,Beta,3,0,0.2094348,30,FALSE,6
11012,training_phase_2,1,1,13,materials/images/blueB5.png,Beta,1,0,0.5177043,30,FALSE,6
11012,training_phase_2,1,1,14,materials/images/blackG1.png,Gamma,2,1,0.9036211,30,FALSE,7
11012,training_phase_2,1,1,15,materials/images/redA6.png,Alpha,3,0,1.436331,30,FALSE,7
11012,training_phase_2,1,1,16,materials/images/redA1.png,Alpha,2,0,0.2418648,30,FALSE,7
11012,training_phase_2,1,1,17,materials/images/blackG5.png,Gamma,1,0,0.4851551,30,FALSE,7
11012,training_phase_2,1,1,18,materials/images/blackG2.png,Gamma,3,0,2.1341223,30,FALSE,7
11012,training_phase_2,1,1,19,materials/images/greenD2.png,Delta,2,0,0.8017504,30,FALSE,7
11012,training_phase_2,1,1,20,materials/images/blackG4.png,Gamma,1,0,0.7771725,30,FALSE,7
11012,training_phase_2,1,1,21,materials/images/greenD4.png,Delta,0,0,0.018444,30,FALSE,7
11012,training_phase_2,1,1,22,materials/images/redA4.png,Alpha,1,1,1.0755807,30,FALSE,8
11012,training_phase_2,1,1,23,materials/images/blueB1.png,Beta,2,0,0.6986225,30,FALSE,8
11012,training_phase_2,1,1,24,materials/images/greenD5.png,Delta,2,0,0.0230592,30,FALSE,8
11012,training_phase_2,1,2,25,materials/images/blackG5.png,Gamma,0,0,1.1829803,30,FALSE,0
11012,training_phase_2,1,2,26,materials/images/greenD6.png,Delta,3,1,0.460712,30,FALSE,1
11012,training_phase_2,1,2,27,materials/images/redA4.png,Alpha,1,1,0.2702058,30,FALSE,2
11012,training_phase_2,1,2,28,materials/images/greenD5.png,Delta,3,1,0.1668988,30,FALSE,3
11012,training_phase_2,1,2,29,materials/images/greenD3.png,Delta,3,1,0.4734983,30,FALSE,4
11012,training_phase_2,1,2,30,materials/images/blackG3.png,Gamma,2,1,2.0874604,30,FALSE,5
11012,training_phase_2,1,2,31,materials/images/redA3.png,Alpha,1,1,0.6403816,30,FALSE,6
11012,training_phase_2,1,2,32,materials/images/blackG4.png,Gamma,2,1,0.3877575,30,FALSE,7
11012,training_phase_2,1,2,33,materials/images/blueB4.png,Beta,1,0,0.1306299,30,FALSE,7
11012,training_phase_2,1,2,34,materials/images/greenD1.png,Delta,2,0,2.8879592,30,FALSE,7
11012,training_phase_2,1,2,35,materials/images/blueB2.png,Beta,3,0,0.3531248,30,FALSE,7
11012,training_phase_2,1,2,36,materials/images/blackG2.png,Gamma,3,0,2.2527623,30,FALSE,7
11012,training_phase_2,1,2,37,materials/images/greenD4.png,Delta,3,1,0.2698068,30,FALSE,8
11012,training_phase_2,1,2,38,materials/images/redA5.png,Alpha,0,0,0.0719058,30,FALSE,8
11012,training_phase_2,1,2,39,materials/images/redA6.png,Alpha,1,1,0.022977,30,FALSE,9
11012,training_phase_2,1,2,40,materials/images/blueB1.png,Beta,2,0,0.754958,30,FALSE,9
11012,training_phase_2,1,2,41,materials/images/redA1.png,Alpha,1,1,0.1020092,30,FALSE,10
11012,training_phase_2,1,2,42,materials/images/blackG6.png,Gamma,1,0,0.3390527,30,FALSE,10
11012,training_phase_2,1,2,43,materials/images/blueB3.png,Beta,0,1,0.0708155,30,FALSE,11
11012,training_phase_2,1,2,44,materials/images/blackG1.png,Gamma,2,1,0.2841279,30,FALSE,12
11012,training_phase_2,1,2,45,materials/images/blueB6.png,Beta,2,0,0.6259457,30,FALSE,12
11012,training_phase_2,1,2,46,materials/images/blueB5.png,Beta,1,0,0.0849051,30,FALSE,12
11012,training_phase_2,1,2,47,materials/images/greenD2.png,Delta,2,0,0.8246292,30,FALSE,12
11012,training_phase_2,1,2,48,materials/images/redA2.png,Alpha,0,0,0.0227805,30,FALSE,12
11016,training_phase_1,1,1,1,materials/images/redA5.png,Alpha,0,0,1.2531098,11,FALSE,0
11016,training_phase_1,1,1,2,materials/images/blueB2.png,Beta,1,0,1.1774765,11,FALSE,0
11016,training_phase_1,1,1,3,materials/images/blueB3.png,Beta,1,0,0.7289652,11,FALSE,0
11016,training_phase_1,1,1,4,materials/images/redA6.png,Alpha,1,1,1.3666364,11,FALSE,1
11016,training_phase_1,1,1,5,materials/images/blueB6.png,Beta,1,0,4.6749368,11,FALSE,1
11016,training_phase_1,1,1,6,materials/images/redA4.png,Alpha,1,1,0.3381479,11,FALSE,2
11016,training_phase_1,1,1,7,materials/images/redA1.png,Alpha,0,0,0.687793,11,FALSE,2
11016,training_phase_1,1,1,8,materials/images/redA3.png,Alpha,1,1,0.4640485,11,FALSE,3
11016,training_phase_1,1,1,9,materials/images/blueB1.png,Beta,1,0,0.8055112,11,FALSE,3
11016,training_phase_1,1,1,10,materials/images/blueB5.png,Beta,1,0,1.536472,11,FALSE,3
11016,training_phase_1,1,1,11,materials/images/blueB4.png,Beta,1,0,0.6156781,11,FALSE,3
11016,training_phase_1,1,1,12,materials/images/redA2.png,Alpha,1,1,1.3293717,11,FALSE,4
11016,training_phase_1,1,2,13,materials/images/blueB2.png,Beta,0,1,0.4359298,11,FALSE,1
11016,training_phase_1,1,2,14,materials/images/redA4.png,Alpha,1,1,0.6416098,11,FALSE,2
11016,training_phase_1,1,2,15,materials/images/blueB3.png,Beta,0,1,0.4227491,11,FALSE,3
11016,training_phase_1,1,2,16,materials/images/blueB1.png,Beta,0,1,0.4977715,11,FALSE,4
11016,training_phase_1,1,2,17,materials/images/blueB4.png,Beta,1,0,1.4587203,11,FALSE,4
11016,training_phase_1,1,2,18,materials/images/redA2.png,Alpha,1,1,0.3791578,11,FALSE,5
11016,training_phase_1,1,2,19,materials/images/redA3.png,Alpha,0,0,0.5348614,11,FALSE,5
11016,training_phase_1,1,2,20,materials/images/redA5.png,Alpha,1,1,0.6479419,11,FALSE,6
11016,training_phase_1,1,2,21,materials/images/redA1.png,Alpha,1,1,0.3200965,11,FALSE,7
11016,training_phase_1,1,2,22,materials/images/blueB5.png,Beta,0,1,1.0543076,11,FALSE,8
11016,training_phase_1,1,2,23,materials/images/blueB6.png,Beta,0,1,0.8512199,11,FALSE,9
11016,training_phase_1,1,2,24,materials/images/redA6.png,Alpha,1,1,0.1624128,11,FALSE,10
11016,training_phase_1,1,3,25,materials/images/blueB5.png,Beta,0,1,1.2057236,11,FALSE,1
11016,training_phase_1,1,3,26,materials/images/redA2.png,Alpha,1,1,0.018385,11,FALSE,2
11016,training_phase_1,1,3,27,materials/images/blueB3.png,Beta,1,0,1.4517877,11,FALSE,2
11016,training_phase_1,1,3,28,materials/images/blueB2.png,Beta,0,1,0.8431238,11,FALSE,3
11016,training_phase_1,1,3,29,materials/images/redA1.png,Alpha,1,1,0.4990256,11,FALSE,4
11016,training_phase_1,1,3,30,materials/images/redA6.png,Alpha,0,0,2.8308033,11,FALSE,4
11016,training_phase_1,1,3,31,materials/images/redA3.png,Alpha,1,1,0.0970323,11,FALSE,5
11016,training_phase_1,1,3,32,materials/images/blueB4.png,Beta,1,0,2.3324239,11,FALSE,5
11016,training_phase_1,1,3,33,materials/images/blueB6.png,Beta,0,1,0.217789,11,FALSE,6
11016,training_phase_1,1,3,34,materials/images/redA5.png,Alpha,1,1,1.8875805,11,FALSE,7
11016,training_phase_1,1,3,35,materials/images/redA4.png,Alpha,1,1,0.0220911,11,FALSE,8
11016,training_phase_1,1,3,36,materials/images/blueB1.png,Beta,0,1,0.0229564,11,FALSE,9
11016,training_phase_1,1,4,37,materials/images/blueB4.png,Beta,0,1,2.4932698,11,FALSE,1
11016,training_phase_1,1,4,38,materials/images/redA4.png,Alpha,1,1,1.1471275,11,FALSE,2
11016,training_phase_1,1,4,39,materials/images/redA5.png,Alpha,1,1,0.6336309,11,FALSE,3
11016,training_phase_1,1,4,40,materials/images/redA6.png,Alpha,1,1,0.1623321,11,FALSE,4
11016,training_phase_1,1,4,41,materials/images/blueB6.png,Beta,0,1,0.2395997,11,FALSE,5
11016,training_phase_1,1,4,42,materials/images/blueB3.png,Beta,0,1,0.0178234,11,FALSE,6
11016,training_phase_1,1,4,43,materials/images/redA3.png,Alpha,1,1,1.3655069,11,FALSE,7
11016,training_phase_1,1,4,44,materials/images/blueB5.png,Beta,0,1,0.4288012,11,FALSE,8
11016,training_phase_1,1,4,45,materials/images/redA1.png,Alpha,1,1,0.5102023,11,FALSE,9
11016,training_phase_1,1,4,46,materials/images/redA2.png,Alpha,1,1,0.1475727,11,FALSE,10
11016,training_phase_1,1,4,47,materials/images/blueB2.png,Beta,0,1,2.4014704,11,TRUE,11
11016,training_phase_1,1,4,48,materials/images/blueB1.png,Beta,0,1,0.0187288,11,TRUE,12
11016,test_phase,1,1,1,materials/images/blueB6.png,Beta,0,2,4.5700768,1,TRUE,1
11016,test_phase,1,1,2,materials/images/redA6.png,Alpha,1,2,0.2658946,1,TRUE,2
11016,test_phase,1,1,3,materials/images/blueB4.png,Beta,1,2,0.2870608,1,TRUE,3
11016,test_phase,1,1,4,materials/images/yGen4.png,test,0,2,1.6137631,1,TRUE,4
11016,test_phase,1,1,5,materials/images/redA1.png,Alpha,1,2,1.7210212,1,TRUE,5
11016,test_phase,1,1,6,materials/images/blueB1.png,Beta,1,2,0.4505766,1,TRUE,6
11016,test_phase,1,1,7,materials/images/redA4.png,Alpha,1,2,2.2810961,1,TRUE,7
11016,test_phase,1,1,8,materials/images/yGen5.png,test,0,2,0.0599671,1,TRUE,8
11016,test_phase,1,1,9,materials/images/blueB5.png,Beta,1,2,0.0225202,1,TRUE,9
11016,test_phase,1,1,10,materials/images/yGen3.png,test,1,2,3.5570633,1,TRUE,10
11016,test_phase,1,1,11,materials/images/redA5.png,Alpha,1,2,0.0222749,1,TRUE,11
11016,test_phase,1,1,12,materials/images/blueB3.png,Beta,0,2,0.9235077,1,TRUE,12
11016,test_phase,1,1,13,materials/images/yGen2.png,test,1,2,0.0223576,1,TRUE,13
11016,test_phase,1,1,14,materials/images/yGen1.png,test,1,2,0.3269863,1,TRUE,14
11016,test_phase,1,1,15,materials/images/redA2.png,Alpha,1,2,0.0224675,1,TRUE,15
11016,test_phase,1,1,16,materials/images/redA3.png,Alpha,1,2,0.0182275,1,TRUE,16
11016,test_phase,1,1,17,materials/images/blueB2.png,Beta,0,2,0.2122423,1,TRUE,17
11016,training_phase_2,1,1,1,materials/images/blueB3.png,Beta,0,1,1.6401883,30,FALSE,1
11016,training_phase_2,1,1,2,materials/images/redA1.png,Alpha,2,0,1.6958513,30,FALSE,1
11016,training_phase_2,1,1,3,materials/images/redA5.png,Alpha,1,1,1.6760147,30,FALSE,2
11016,training_phase_2,1,1,4,materials/images/blueB1.png,Beta,0,1,1.1131301,30,FALSE,3
11016,training_phase_2,1,1,5,materials/images/redA3.png,Alpha,1,1,0.355,30,FALSE,4
11016,training_phase_2,1,1,6,materials/images/blueB5.png,Beta,0,1,0.502132,30,FALSE,5
11016,training_phase_2,1,1,7,materials/images/blackG1.png,Gamma,0,0,2.4417873,30,FALSE,5
11016,training_phase_2,1,1,8,materials/images/blueB4.png,Beta,1,0,0.4688048,30,FALSE,5
11016,training_phase_2,1,1,9,materials/images/redA4.png,Alpha,1,1,0.5965465,30,FALSE,6
11016,training_phase_2,1,1,10,materials/images/blackG4.png,Gamma,0,0,2.4916295,30,FALSE,6
11016,training_phase_2,1,1,11,materials/images/redA6.png,Alpha,0,0,1.3083005,30,FALSE,6
11016,training_phase_2,1,1,12,materials/images/greenD5.png,Delta,0,0,0.0222817,30,FALSE,6
11016,training_phase_2,1,1,13,materials/images/greenD4.png,Delta,3,1,0.0186359,30,FALSE,7
11016,training_phase_2,1,1,14,materials/images/blackG6.png,Gamma,2,1,0.0231074,30,FALSE,8
11016,training_phase_2,1,1,15,materials/images/blackG3.png,Gamma,0,0,2.3737612,30,FALSE,8
11016,training_phase_2,1,1,16,materials/images/greenD2.png,Delta,1,0,2.5371829,30,FALSE,8
11016,training_phase_2,1,1,17,materials/images/blueB6.png,Beta,2,0,16.9661715,30,FALSE,8
11016,training_phase_2,1,1,18,materials/images/greenD1.png,Delta,3,1,0.0434026,30,FALSE,9
11016,training_phase_2,1,1,19,materials/images/blackG5.png,Gamma,1,0,0.1232033,30,FALSE,9
11016,training_phase_2,1,1,20,materials/images/blueB2.png,Beta,2,0,3.3265576,30,FALSE,9
11016,training_phase_2,1,1,21,materials/images/redA2.png,Alpha,1,1,0.4837544,30,FALSE,10
11016,training_phase_2,1,1,22,materials/images/greenD3.png,Delta,0,0,0.4607386,30,FALSE,10
11016,training_phase_2,1,1,23,materials/images/greenD6.png,Delta,0,0,0.0908621,30,FALSE,10
11016,training_phase_2,1,1,24,materials/images/blackG2.png,Gamma,2,1,0.3813767,30,FALSE,11
11016,training_phase_2,1,2,25,materials/images/blackG1.png,Gamma,0,0,4.8109297,30,FALSE,0
11016,training_phase_2,1,2,26,materials/images/blackG2.png,Gamma,2,1,11.9446157,30,FALSE,1
11016,training_phase_2,1,2,27,materials/images/redA2.png,Alpha,2,0,1.0839133,30,FALSE,1
11016,training_phase_2,1,2,28,materials/images/blueB3.png,Beta,3,0,1.6206915,30,FALSE,1
11016,training_phase_2,1,2,29,materials/images/greenD4.png,Delta,3,1,0.5937502,30,FALSE,2
11016,training_phase_2,1,2,30,materials/images/greenD1.png,Delta,0,0,2.0697379,30,FALSE,2
11016,training_phase_2,1,2,31,materials/images/redA1.png,Alpha,1,1,0.0345878,30,FALSE,3
11016,training_phase_2,1,2,32,materials/images/greenD3.png,Delta,3,1,4.1448886,30,FALSE,4
11016,training_phase_2,1,2,33,materials/images/greenD5.png,Delta,3,1,1.0039198,30,FALSE,5
11016,training_phase_2,1,2,34,materials/images/blueB6.png,Beta,2,0,0.836071,30,FALSE,5
11016,training_phase_2,1,2,35,materials/images/redA4.png,Alpha,1,1,0.2176544,30,FALSE,6
11016,training_phase_2,1,2,36,materials/images/blackG5.png,Gamma,2,1,0.0183043,30,FALSE,7
11016,training_phase_2,1,2,37,materials/images/redA6.png,Alpha,0,0,2.8180789,30,FALSE,7
11016,training_phase_2,1,2,38,materials/images/greenD6.png,Delta,0,0,0.5470291,30,FALSE,7
11016,training_phase_2,1,2,39,materials/images/blackG6.png,Gamma,2,1,0.0185838,30,FALSE,8
11016,training_phase_2,1,2,40,materials/images/greenD2.png,Delta,3,1,0.4794469,30,FALSE,9
11016,training_phase_2,1,2,41,materials/images/blackG4.png,Gamma,1,0,1.6154101,30,FALSE,9
11016,training_phase_2,1,2,42,materials/images/redA5.png,Alpha,1,1,0.281381,30,FALSE,10
11016,training_phase_2,1,2,43,materials/images/blueB2.png,Beta,3,0,6.4459733,30,FALSE,10
11016,training_phase_2,1,2,44,materials/images/blueB1.png,Beta,3,0,0.3824487,30,FALSE,10
11016,training_phase_2,1,2,45,materials/images/blueB5.png,Beta,1,0,3.4267433,30,FALSE,10
11016,training_phase_2,1,2,46,materials/images/redA3.png,Alpha,1,1,0.1548586,30,FALSE,11
11016,training_phase_2,1,2,47,materials/images/blackG3.png,Gamma,2,1,2.9938666,30,FALSE,12
11016,training_phase_2,1,2,48,materials/images/blueB4.png,Beta,1,0,0.7040757,30,FALSE,12
11022,training_phase_1,1,1,1,materials/images/redA4.png,Alpha,0,0,43.8024319,11,FALSE,0
11022,training_phase_1,1,1,2,materials/images/redA5.png,Alpha,1,1,1.8885021,11,FALSE,1
11022,training_phase_1,1,1,3,materials/images/blueB3.png,Beta,1,0,1.0139956,11,FALSE,1
11022,training_phase_1,1,1,4,materials/images/blueB1.png,Beta,0,1,3.7312537,11,FALSE,2
11022,training_phase_1,1,1,5,materials/images/blueB6.png,Beta,1,0,0.0378465,11,FALSE,2
11022,training_phase_1,1,1,6,materials/images/blueB2.png,Beta,0,1,0.3916196,11,FALSE,3
11022,training_phase_1,1,1,7,materials/images/blueB4.png,Beta,1,0,0.2777964,11,FALSE,3
11022,training_phase_1,1,1,8,materials/images/redA6.png,Alpha,0,0,1.2299543,11,FALSE,3
11022,training_phase_1,1,1,9,materials/images/blueB5.png,Beta,0,1,0.2197531,11,FALSE,4
11022,training_phase_1,1,1,10,materials/images/redA2.png,Alpha,1,1,0.5477973,11,FALSE,5
11022,training_phase_1,1,1,11,materials/images/redA1.png,Alpha,1,1,0.9219655,11,FALSE,6
11022,training_phase_1,1,1,12,materials/images/redA3.png,Alpha,1,1,0.2583233,11,FALSE,7
11022,training_phase_1,1,2,13,materials/images/blueB6.png,Beta,0,1,0.0413643,11,FALSE,1
11022,training_phase_1,1,2,14,materials/images/blueB2.png,Beta,1,0,0.2219729,11,FALSE,1
11022,training_phase_1,1,2,15,materials/images/redA4.png,Alpha,0,0,0.0200115,11,FALSE,1
11022,training_phase_1,1,2,16,materials/images/redA3.png,Alpha,1,1,0.2841081,11,FALSE,2
11022,training_phase_1,1,2,17,materials/images/redA6.png,Alpha,1,1,0.6237481,11,FALSE,3
11022,training_phase_1,1,2,18,materials/images/blueB3.png,Beta,0,1,0.3627145,11,FALSE,4
11022,training_phase_1,1,2,19,materials/images/redA5.png,Alpha,0,0,0.2545548,11,FALSE,4
11022,training_phase_1,1,2,20,materials/images/blueB4.png,Beta,1,0,1.517499,11,FALSE,4
11022,training_phase_1,1,2,21,materials/images/blueB1.png,Beta,0,1,1.8127778,11,FALSE,5
11022,training_phase_1,1,2,22,materials/images/blueB5.png,Beta,1,0,0.3519638,11,FALSE,5
11022,training_phase_1,1,2,23,materials/images/redA2.png,Alpha,0,0,0.6465982,11,FALSE,5
11022,training_phase_1,1,2,24,materials/images/redA1.png,Alpha,1,1,0.4888787,11,FALSE,6
11022,training_phase_1,1,3,25,materials/images/redA3.png,Alpha,1,1,0.3744818,11,FALSE,1
11022,training_phase_1,1,3,26,materials/images/redA1.png,Alpha,1,1,0.2130102,11,FALSE,2
11022,training_phase_1,1,3,27,materials/images/blueB2.png,Beta,0,1,0.3900105,11,FALSE,3
11022,training_phase_1,1,3,28,materials/images/blueB1.png,Beta,1,0,0.09573,11,FALSE,3
11022,training_phase_1,1,3,29,materials/images/redA6.png,Alpha,0,0,0.751215,11,FALSE,3
11022,training_phase_1,1,3,30,materials/images/blueB6.png,Beta,1,0,0.2273241,11,FALSE,3
11022,training_phase_1,1,3,31,materials/images/redA2.png,Alpha,1,1,0.0824654,11,FALSE,4
11022,training_phase_1,1,3,32,materials/images/blueB5.png,Beta,0,1,0.3954679,11,FALSE,5
11022,training_phase_1,1,3,33,materials/images/blueB4.png,Beta,0,1,0.2137347,11,FALSE,6
11022,training_phase_1,1,3,34,materials/images/redA4.png,Alpha,0,0,0.1456527,11,FALSE,6
11022,training_phase_1,1,3,35,materials/images/redA5.png,Alpha,1,1,0.0201466,11,FALSE,7
11022,training_phase_1,1,3,36,materials/images/blueB3.png,Beta,1,0,0.5991403,11,FALSE,7
11022,training_phase_1,1,4,37,materials/images/redA2.png,Alpha,1,1,0.5455079,11,FALSE,1
11022,training_phase_1,1,4,38,materials/images/redA1.png,Alpha,1,1,0.1836098,11,FALSE,2
11022,training_phase_1,1,4,39,materials/images/blueB6.png,Beta,0,1,0.5182746,11,FALSE,3
11022,training_phase_1,1,4,40,materials/images/redA3.png,Alpha,1,1,0.1964539,11,FALSE,4
11022,training_phase_1,1,4,41,materials/images/redA4.png,Alpha,1,1,0.8176217,11,FALSE,5
11022,training_phase_1,1,4,42,materials/images/blueB5.png,Beta,0,1,2.2243327,11,FALSE,6
11022,training_phase_1,1,4,43,materials/images/redA5.png,Alpha,1,1,0.2182334,11,FALSE,7
11022,training_phase_1,1,4,44,materials/images/blueB2.png,Beta,0,1,0.0202968,11,FALSE,8
11022,training_phase_1,1,4,45,materials/images/blueB4.png,Beta,1,0,0.0238878,11,FALSE,8
11022,training_phase_1,1,4,46,materials/images/redA6.png,Alpha,1,1,0.0767167,11,FALSE,9
11022,training_phase_1,1,4,47,materials/images/blueB1.png,Beta,0,1,0.0230613,11,FALSE,10
11022,training_phase_1,1,4,48,materials/images/blueB3.png,Beta,0,1,0.2121515,11,TRUE,11
11022,test_phase,1,1,1,materials/images/redA5.png,Alpha,0,2,1.3287439,1,TRUE,1
11022,test_phase,1,1,2,materials/images/redA6.png,Alpha,0,2,1.0518668,1,TRUE,2
11022,test_phase,1,1,3,materials/images/yGen5.png,test,1,2,0.3743271,1,TRUE,3
11022,test_phase,1,1,4,materials/images/yGen3.png,test,1,2,0.1325831,1,TRUE,4
11022,test_phase,1,1,5,materials/images/blueB3.png,Beta,1,2,0.2103659,1,TRUE,5
11022,test_phase,1,1,6,materials/images/yGen4.png,test,1,2,0.419724,1,TRUE,6
11022,test_phase,1,1,7,materials/images/blueB1.png,Beta,0,2,0.2204316,1,TRUE,7
11022,test_phase,1,1,8,materials/images/blueB5.png,Beta,1,2,0.0232925,1,TRUE,8
11022,test_phase,1,1,9,materials/images/redA2.png,Alpha,1,2,0.0195017,1,TRUE,9
11022,test_phase,1,1,10,materials/images/yGen1.png,test,1,2,0.0195516,1,TRUE,10
11022,test_phase,1,1,11,materials/images/blueB6.png,Beta,0,2,0.3668721,1,TRUE,11
11022,test_phase,1,1,12,materials/images/yGen2.png,test,1,2,0.4125432,1,TRUE,12
11022,test_phase,1,1,13,materials/images/redA3.png,Alpha,1,2,0.1108626,1,TRUE,13
11022,test_phase,1,1,14,materials/images/blueB2.png,Beta,0,2,0.1491982,1,TRUE,14
11022,test_phase,1,1,15,materials/images/redA1.png,Alpha,1,2,0.0199748,1,TRUE,15
11022,test_phase,1,1,16,materials/images/blueB4.png,Beta,1,2,0.3141437,1,TRUE,16
11022,test_phase,1,1,17,materials/images/redA4.png,Alpha,1,2,0.0194615,1,TRUE,17
11022,training_phase_2,1,1,1,materials/images/blackG3.png,Gamma,1,0,1.8158347,30,FALSE,0
11022,training_phase_2,1,1,2,materials/images/redA2.png,Alpha,1,1,0.0906964,30,FALSE,1
11022,training_phase_2,1,1,3,materials/images/blueB1.png,Beta,0,1,0.1202977,30,FALSE,2
11022,training_phase_2,1,1,4,materials/images/blueB5.png,Beta,3,0,2.0650364,30,FALSE,2
11022,training_phase_2,1,1,5,materials/images/blueB6.png,Beta,0,1,0.0994248,30,FALSE,3
11022,training_phase_2,1,1,6,materials/images/redA6.png,Alpha,2,0,0.2575835,30,FALSE,3
11022,training_phase_2,1,1,7,materials/images/redA1.png,Alpha,1,1,0.5441357,30,FALSE,4
11022,training_phase_2,1,1,8,materials/images/greenD1.png,Delta,2,0,1.1011719,30,FALSE,4
11022,training_phase_2,1,1,9,materials/images/redA3.png,Alpha,1,1,1.6790881,30,FALSE,5
11022,training_phase_2,1,1,10,materials/images/blueB2.png,Beta,0,1,0.0235197,30,FALSE,6
11022,training_phase_2,1,1,11,materials/images/redA4.png,Alpha,2,0,0.6519241,30,FALSE,6
11022,training_phase_2,1,1,12,materials/images/greenD2.png,Delta,0,0,0.2725152,30,FALSE,6
11022,training_phase_2,1,1,13,materials/images/blackG4.png,Gamma,2,1,0.1502885,30,FALSE,7
11022,training_phase_2,1,1,14,materials/images/blackG5.png,Gamma,2,1,0.0569854,30,FALSE,8
11022,training_phase_2,1,1,15,materials/images/greenD6.png,Delta,3,1,0.0373883,30,FALSE,9
11022,training_phase_2,1,1,16,materials/images/blackG6.png,Gamma,0,0,1.4074889,30,FALSE,9
11022,training_phase_2,1,1,17,materials/images/greenD4.png,Delta,3,1,0.0677255,30,FALSE,10
11022,training_phase_2,1,1,18,materials/images/blueB3.png,Beta,3,0,0.0244796,30,FALSE,10
11022,training_phase_2,1,1,19,materials/images/blueB4.png,Beta,1,0,0.6524004,30,FALSE,10
11022,training_phase_2,1,1,20,materials/images/blackG2.png,Gamma,3,0,1.2286312,30,FALSE,10
11022,training_phase_2,1,1,21,materials/images/blackG1.png,Gamma,2,1,0.0641285,30,FALSE,11
11022,training_phase_2,1,1,22,materials/images/redA5.png,Alpha,0,0,0.3693096,30,FALSE,11
11022,training_phase_2,1,1,23,materials/images/greenD3.png,Delta,3,1,0.0246923,30,FALSE,12
11022,training_phase_2,1,1,24,materials/images/greenD5.png,Delta,3,1,0.4528368,30,FALSE,13
11022,training_phase_2,1,2,25,materials/images/redA3.png,Alpha,1,1,0.0227661,30,FALSE,1
11022,training_phase_2,1,2,26,materials/images/redA4.png,Alpha,1,1,0.0203548,30,FALSE,2
11022,training_phase_2,1,2,27,materials/images/blueB5.png,Beta,1,0,0.5566841,30,FALSE,2
11022,training_phase_2,1,2,28,materials/images/blueB4.png,Beta,0,1,0.0209208,30,FALSE,3
11022,training_phase_2,1,2,29,materials/images/blackG6.png,Gamma,0,0,0.0203466,30,FALSE,3
11022,training_phase_2,1,2,30,materials/images/redA1.png,Alpha,1,1,0.0574846,30,FALSE,4
11022,training_phase_2,1,2,31,materials/images/redA6.png,Alpha,0,0,0.8584621,30,FALSE,4
11022,training_phase_2,1,2,32,materials/images/greenD6.png,Delta,3,1,0.0236726,30,FALSE,5
11022,training_phase_2,1,2,33,materials/images/blueB1.png,Beta,3,0,0.0232277,30,FALSE,5
11022,training_phase_2,1,2,34,materials/images/redA5.png,Alpha,0,0,0.0194943,30,FALSE,5
11022,training_phase_2,1,2,35,materials/images/blueB3.png,Beta,0,1,0.0195186,30,FALSE,6
11022,training_phase_2,1,2,36,materials/images/greenD4.png,Delta,3,1,0.5309047,30,FALSE,7
11022,training_phase_2,1,2,37,materials/images/blackG2.png,Gamma,0,0,1.8503963,30,FALSE,7
11022,training_phase_2,1,2,38,materials/images/blackG5.png,Gamma,0,0,0.6757168,30,FALSE,7
11022,training_phase_2,1,2,39,materials/images/blackG4.png,Gamma,2,1,0.2240288,30,FALSE,8
11022,training_phase_2,1,2,40,materials/images/redA2.png,Alpha,1,1,0.1141152,30,FALSE,9
11022,training_phase_2,1,2,41,materials/images/blueB2.png,Beta,3,0,0.1620536,30,FALSE,9
11022,training_phase_2,1,2,42,materials/images/blackG1.png,Gamma,0,0,0.0231157,30,FALSE,9
11022,training_phase_2,1,2,43,materials/images/greenD5.png,Delta,3,1,0.0753243,30,FALSE,10
11022,training_phase_2,1,2,44,materials/images/greenD1.png,Delta,2,0,0.1405688,30,FALSE,10
11022,training_phase_2,1,2,45,materials/images/blueB6.png,Beta,3,0,0.2036535,30,FALSE,10
11022,training_phase_2,1,2,46,materials/images/greenD2.png,Delta,3,1,0.1729197,30,FALSE,11
11022,training_phase_2,1,2,47,materials/images/greenD3.png,Delta,3,1,0.0306628,30,FALSE,12
11022,training_phase_2,1,2,48,materials/images/blackG3.png,Gamma,2,1,0.5834444,30,FALSE,13
11024,training_phase_1,1,1,1,materials/images/blueB5.png,Beta,1,0,7.4249375,11,FALSE,0
11024,training_phase_1,1,1,2,materials/images/blueB4.png,Beta,0,1,1.2900701,11,FALSE,1
11024,training_phase_1,1,1,3,materials/images/blueB6.png,Beta,0,1,0.7607375,11,FALSE,2
11024,training_phase_1,1,1,4,materials/images/redA4.png,Alpha,0,0,0.5276999,11,FALSE,2
11024,training_phase_1,1,1,5,materials/images/blueB3.png,Beta,1,0,0.2190358,11,FALSE,2
11024,training_phase_1,1,1,6,materials/images/blueB2.png,Beta,1,0,1.188652,11,FALSE,2
11024,training_phase_1,1,1,7,materials/images/redA3.png,Alpha,1,1,0.2345356,11,FALSE,3
11024,training_phase_1,1,1,8,materials/images/redA1.png,Alpha,1,1,0.8008791,11,FALSE,4
11024,training_phase_1,1,1,9,materials/images/redA6.png,Alpha,0,0,0.2211841,11,FALSE,4
11024,training_phase_1,1,1,10,materials/images/blueB1.png,Beta,1,0,0.6045222,11,FALSE,4
11024,training_phase_1,1,1,11,materials/images/redA2.png,Alpha,0,0,1.4754217,11,FALSE,4
11024,training_phase_1,1,1,12,materials/images/redA5.png,Alpha,0,0,0.0191548,11,FALSE,4
11024,training_phase_1,1,2,13,materials/images/blueB4.png,Beta,0,1,0.2375157,11,FALSE,1
11024,training_phase_1,1,2,14,materials/images/blueB6.png,Beta,0,1,0.6580579,11,FALSE,2
11024,training_phase_1,1,2,15,materials/images/redA3.png,Alpha,1,1,0.2402918,11,FALSE,3
11024,training_phase_1,1,2,16,materials/images/blueB5.png,Beta,0,1,0.2116672,11,FALSE,4
11024,training_phase_1,1,2,17,materials/images/redA5.png,Alpha,0,0,0.878044,11,FALSE,4
11024,training_phase_1,1,2,18,materials/images/redA4.png,Alpha,1,1,0.9142286,11,FALSE,5
11024,training_phase_1,1,2,19,materials/images/redA1.png,Alpha,1,1,0.3378766,11,FALSE,6
11024,training_phase_1,1,2,20,materials/images/blueB1.png,Beta,1,0,0.5707285,11,FALSE,6
11024,training_phase_1,1,2,21,materials/images/blueB2.png,Beta,1,0,0.0197169,11,FALSE,6
11024,training_phase_1,1,2,22,materials/images/redA2.png,Alpha,1,1,0.0238934,11,FALSE,7
11024,training_phase_1,1,2,23,materials/images/blueB3.png,Beta,0,1,0.8688713,11,FALSE,8
11024,training_phase_1,1,2,24,materials/images/redA6.png,Alpha,0,0,0.2910959,11,FALSE,8
11024,training_phase_1,1,3,25,materials/images/blueB3.png,Beta,1,0,0.4818009,11,FALSE,0
11024,training_phase_1,1,3,26,materials/images/redA2.png,Alpha,1,1,0.0687627,11,FALSE,1
11024,training_phase_1,1,3,27,materials/images/blueB2.png,Beta,0,1,1.1373064,11,FALSE,2
11024,training_phase_1,1,3,28,materials/images/blueB5.png,Beta,0,1,0.1792699,11,FALSE,3
11024,training_phase_1,1,3,29,materials/images/redA3.png,Alpha,1,1,0.2380947,11,FALSE,4
11024,training_phase_1,1,3,30,materials/images/redA1.png,Alpha,1,1,0.2208358,11,FALSE,5
11024,training_phase_1,1,3,31,materials/images/redA6.png,Alpha,0,0,0.0239445,11,FALSE,5
11024,training_phase_1,1,3,32,materials/images/blueB1.png,Beta,1,0,0.0336467,11,FALSE,5
11024,training_phase_1,1,3,33,materials/images/blueB6.png,Beta,0,1,0.10833,11,FALSE,6
11024,training_phase_1,1,3,34,materials/images/redA4.png,Alpha,1,1,2.4393622,11,FALSE,7
11024,training_phase_1,1,3,35,materials/images/blueB4.png,Beta,0,1,0.1180089,11,FALSE,8
11024,training_phase_1,1,3,36,materials/images/redA5.png,Alpha,0,0,3.7266433,11,FALSE,8
11024,training_phase_1,1,4,37,materials/images/blueB5.png,Beta,0,1,0.0196772,11,FALSE,1
11024,training_phase_1,1,4,38,materials/images/redA3.png,Alpha,1,1,0.7841043,11,FALSE,2
11024,training_phase_1,1,4,39,materials/images/redA1.png,Alpha,1,1,0.0251447,11,FALSE,3
11024,training_phase_1,1,4,40,materials/images/blueB3.png,Beta,0,1,0.0286799,11,FALSE,4
11024,training_phase_1,1,4,41,materials/images/redA5.png,Alpha,0,0,0.5710129,11,FALSE,4
11024,training_phase_1,1,4,42,materials/images/redA6.png,Alpha,0,0,0.0333587,11,FALSE,4
11024,training_phase_1,1,4,43,materials/images/blueB4.png,Beta,0,1,0.7469133,11,FALSE,5
11024,training_phase_1,1,4,44,materials/images/redA4.png,Alpha,1,1,0.1193036,11,FALSE,6
11024,training_phase_1,1,4,45,materials/images/redA2.png,Alpha,1,1,0.8241104,11,FALSE,7
11024,training_phase_1,1,4,46,materials/images/blueB2.png,Beta,1,0,1.1492766,11,FALSE,7
11024,training_phase_1,1,4,47,materials/images/blueB1.png,Beta,1,0,0.0228823,11,FALSE,7
11024,training_phase_1,1,4,48,materials/images/blueB6.png,Beta,0,1,0.5218643,11,FALSE,8
11024,training_phase_1,1,5,49,materials/images/redA1.png,Alpha,1,1,0.7214898,11,FALSE,1
11024,training_phase_1,1,5,50,materials/images/blueB1.png,Beta,0,1,0.5372225,11,FALSE,2
11024,training_phase_1,1,5,51,materials/images/blueB6.png,Beta,0,1,0.1793953,11,FALSE,3
11024,training_phase_1,1,5,52,materials/images/redA6.png,Alpha,0,0,1.4558326,11,FALSE,3
11024,training_phase_1,1,5,53,materials/images/blueB5.png,Beta,0,1,0.1713429,11,FALSE,4
11024,training_phase_1,1,5,54,materials/images/blueB2.png,Beta,0,1,0.3153981,11,FALSE,5
11024,training_phase_1,1,5,55,materials/images/redA4.png,Alpha,1,1,1.3678862,11,FALSE,6
11024,training_phase_1,1,5,56,materials/images/blueB3.png,Beta,0,1,0.381887,11,FALSE,7
11024,training_phase_1,1,5,57,materials/images/redA2.png,Alpha,1,1,0.041621,11,FALSE,8
11024,training_phase_1,1,5,58,materials/images/redA3.png,Alpha,1,1,0.4758321,11,FALSE,9
11024,training_phase_1,1,5,59,materials/images/redA5.png,Alpha,0,0,1.175655,11,FALSE,9
11024,training_phase_1,1,5,60,materials/images/blueB4.png,Beta,0,1,0.0232838,11,FALSE,10
11024,training_phase_1,1,6,61,materials/images/blueB6.png,Beta,0,1,0.0842481,11,FALSE,1
11024,training_phase_1,1,6,62,materials/images/redA5.png,Alpha,0,0,1.0409692,11,FALSE,1
11024,training_phase_1,1,6,63,materials/images/redA4.png,Alpha,1,1,0.0858468,11,FALSE,2
11024,training_phase_1,1,6,64,materials/images/redA1.png,Alpha,1,1,0.2499539,11,FALSE,3
11024,training_phase_1,1,6,65,materials/images/blueB3.png,Beta,0,1,2.3990563,11,FALSE,4
11024,training_phase_1,1,6,66,materials/images/blueB5.png,Beta,0,1,0.3405513,11,FALSE,5
11024,training_phase_1,1,6,67,materials/images/blueB4.png,Beta,0,1,0.1138204,11,FALSE,6
11024,training_phase_1,1,6,68,materials/images/redA3.png,Alpha,1,1,1.5572413,11,FALSE,7
11024,training_phase_1,1,6,69,materials/images/blueB1.png,Beta,1,0,0.1091098,11,FALSE,7
11024,training_phase_1,1,6,70,materials/images/redA6.png,Alpha,0,0,0.5363708,11,FALSE,7
11024,training_phase_1,1,6,71,materials/images/redA2.png,Alpha,1,1,0.0232121,11,FALSE,8
11024,training_phase_1,1,6,72,materials/images/blueB2.png,Beta,0,1,2.6311971,11,FALSE,9
11024,training_phase_1,1,7,73,materials/images/redA1.png,Alpha,1,1,0.6681043,11,FALSE,1
11024,training_phase_1,1,7,74,materials/images/blueB6.png,Beta,0,1,0.1865266,11,FALSE,2
11024,training_phase_1,1,7,75,materials/images/redA2.png,Alpha,1,1,0.1172265,11,FALSE,3
11024,training_phase_1,1,7,76,materials/images/blueB4.png,Beta,0,1,0.6436689,11,FALSE,4
11024,training_phase_1,1,7,77,materials/images/blueB2.png,Beta,0,1,0.7195515,11,FALSE,5
11024,training_phase_1,1,7,78,materials/images/blueB1.png,Beta,0,1,0.3259876,11,FALSE,6
11024,training_phase_1,1,7,79,materials/images/redA6.png,Alpha,1,1,1.0731323,11,FALSE,7
11024,training_phase_1,1,7,80,materials/images/blueB3.png,Beta,0,1,1.6234947,11,FALSE,8
11024,training_phase_1,1,7,81,materials/images/redA3.png,Alpha,1,1,0.5265589,11,FALSE,9
11024,training_phase_1,1,7,82,materials/images/redA4.png,Alpha,1,1,2.0277072,11,FALSE,10
11024,training_phase_1,1,7,83,materials/images/redA5.png,Alpha,1,1,0.2285942,11,TRUE,11
11024,training_phase_1,1,7,84,materials/images/blueB5.png,Beta,0,1,0.3985295,11,TRUE,12
11024,test_phase,1,1,1,materials/images/redA1.png,Alpha,1,2,1.3492835,1,TRUE,1
11024,test_phase,1,1,2,materials/images/blueB3.png,Beta,0,2,2.4827757,1,TRUE,2
11024,test_phase,1,1,3,materials/images/blueB2.png,Beta,0,2,1.3575014,1,TRUE,3
11024,test_phase,1,1,4,materials/images/redA3.png,Alpha,1,2,1.6709221,1,TRUE,4
11024,test_phase,1,1,5,materials/images/redA2.png,Alpha,1,2,0.2065702,1,TRUE,5
11024,test_phase,1,1,6,materials/images/blueB5.png,Beta,0,2,0.0290972,1,TRUE,6
11024,test_phase,1,1,7,materials/images/blueB6.png,Beta,0,2,2.7010362,1,TRUE,7
11024,test_phase,1,1,8,materials/images/yGen1.png,test,1,2,0.4590808,1,TRUE,8
11024,test_phase,1,1,9,materials/images/blueB1.png,Beta,0,2,0.2278024,1,TRUE,9
11024,test_phase,1,1,10,materials/images/blueB4.png,Beta,0,2,3.3704819,1,TRUE,10
11024,test_phase,1,1,11,materials/images/redA5.png,Alpha,1,2,0.3543281,1,TRUE,11
11024,test_phase,1,1,12,materials/images/yGen2.png,test,1,2,1.3706118,1,TRUE,12
11024,test_phase,1,1,13,materials/images/yGen3.png,test,1,2,1.5384891,1,TRUE,13
11024,test_phase,1,1,14,materials/images/redA6.png,Alpha,0,2,2.8553262,1,TRUE,14
11024,test_phase,1,1,15,materials/images/yGen5.png,test,0,2,1.9637958,1,TRUE,15
11024,test_phase,1,1,16,materials/images/yGen4.png,test,1,2,0.3627551,1,TRUE,16
11024,test_phase,1,1,17,materials/images/redA4.png,Alpha,1,2,0.5006248,1,TRUE,17
11024,training_phase_2,1,1,1,materials/images/redA6.png,Alpha,0,0,3.1114874,30,FALSE,0
11024,training_phase_2,1,1,2,materials/images/greenD4.png,Delta,0,0,0.475133,30,FALSE,0
11024,training_phase_2,1,1,3,materials/images/redA2.png,Alpha,1,1,0.1923265,30,FALSE,1
11024,training_phase_2,1,1,4,materials/images/blueB2.png,Beta,0,1,0.6023237,30,FALSE,2
11024,training_phase_2,1,1,5,materials/images/blueB6.png,Beta,1,0,0.5221336,30,FALSE,2
11024,training_phase_2,1,1,6,materials/images/blackG1.png,Gamma,1,0,0.0248004,30,FALSE,2
11024,training_phase_2,1,1,7,materials/images/greenD3.png,Delta,1,0,0.9965218,30,FALSE,2
11024,training_phase_2,1,1,8,materials/images/redA1.png,Alpha,1,1,0.1573137,30,FALSE,3
11024,training_phase_2,1,1,9,materials/images/redA3.png,Alpha,0,0,0.1286936,30,FALSE,3
11024,training_phase_2,1,1,10,materials/images/blackG4.png,Gamma,0,0,0.0511698,30,FALSE,3
11024,training_phase_2,1,1,11,materials/images/blueB3.png,Beta,0,1,2.445606,30,FALSE,4
11024,training_phase_2,1,1,12,materials/images/redA5.png,Alpha,0,0,0.4515645,30,FALSE,4
11024,training_phase_2,1,1,13,materials/images/greenD6.png,Delta,2,0,2.5420959,30,FALSE,4
11024,training_phase_2,1,1,14,materials/images/blackG2.png,Gamma,1,0,0.1365711,30,FALSE,4
11024,training_phase_2,1,1,15,materials/images/redA4.png,Alpha,1,1,0.4056729,30,FALSE,5
11024,training_phase_2,1,1,16,materials/images/blackG5.png,Gamma,0,0,0.1493223,30,FALSE,5
11024,training_phase_2,1,1,17,materials/images/blackG3.png,Gamma,3,0,2.0194272,30,FALSE,5
11024,training_phase_2,1,1,18,materials/images/greenD5.png,Delta,2,0,0.4774899,30,FALSE,5
11024,training_phase_2,1,1,19,materials/images/blueB1.png,Beta,0,1,0.8770492,30,FALSE,6
11024,training_phase_2,1,1,20,materials/images/blueB4.png,Beta,0,1,0.3974593,30,FALSE,7
11024,training_phase_2,1,1,21,materials/images/blackG6.png,Gamma,2,1,0.1567745,30,FALSE,8
11024,training_phase_2,1,1,22,materials/images/greenD1.png,Delta,3,1,1.4459214,30,FALSE,9
11024,training_phase_2,1,1,23,materials/images/blueB5.png,Beta,0,1,0.2722683,30,FALSE,10
11024,training_phase_2,1,1,24,materials/images/greenD2.png,Delta,3,1,0.6624438,30,FALSE,11
11024,training_phase_2,1,2,25,materials/images/greenD4.png,Delta,2,0,0.1038234,30,FALSE,0
11024,training_phase_2,1,2,26,materials/images/blackG4.png,Gamma,0,0,0.0185256,30,FALSE,0
11024,training_phase_2,1,2,27,materials/images/redA1.png,Alpha,1,1,0.6200146,30,FALSE,1
11024,training_phase_2,1,2,28,materials/images/blueB1.png,Beta,0,1,0.4848573,30,FALSE,2
11024,training_phase_2,1,2,29,materials/images/blackG1.png,Gamma,1,0,0.0850551,30,FALSE,2
11024,training_phase_2,1,2,30,materials/images/blackG5.png,Gamma,0,0,0.9334387,30,FALSE,2
11024,training_phase_2,1,2,31,materials/images/blackG3.png,Gamma,0,0,0.8890162,30,FALSE,2
11024,training_phase_2,1,2,32,materials/images/greenD3.png,Delta,3,1,0.7892801,30,FALSE,3
11024,training_phase_2,1,2,33,materials/images/redA5.png,Alpha,1,1,1.6921993,30,FALSE,4
11024,training_phase_2,1,2,34,materials/images/greenD5.png,Delta,2,0,0.0198498,30,FALSE,4
11024,training_phase_2,1,2,35,materials/images/blueB3.png,Beta,3,0,0.0206913,30,FALSE,4
11024,training_phase_2,1,2,36,materials/images/blueB5.png,Beta,0,1,0.0250943,30,FALSE,5
11024,training_phase_2,1,2,37,materials/images/blueB6.png,Beta,2,0,1.5073698,30,FALSE,5
11024,training_phase_2,1,2,38,materials/images/blueB4.png,Beta,0,1,0.2803481,30,FALSE,6
11024,training_phase_2,1,2,39,materials/images/redA4.png,Alpha,1,1,0.1405883,30,FALSE,7
11024,training_phase_2,1,2,40,materials/images/greenD2.png,Delta,2,0,0.7153596,30,FALSE,7
11024,training_phase_2,1,2,41,materials/images/redA6.png,Alpha,2,0,0.0200164,30,FALSE,7
11024,training_phase_2,1,2,42,materials/images/greenD6.png,Delta,2,0,0.1743099,30,FALSE,7
11024,training_phase_2,1,2,43,materials/images/redA3.png,Alpha,1,1,0.019294,30,FALSE,8
11024,training_phase_2,1,2,44,materials/images/blackG6.png,Gamma,2,1,0.0189841,30,FALSE,9
11024,training_phase_2,1,2,45,materials/images/blueB2.png,Beta,0,1,2.6376094,30,FALSE,10
11024,training_phase_2,1,2,46,materials/images/redA2.png,Alpha,1,1,0.1554722,30,FALSE,11
11024,training_phase_2,1,2,47,materials/images/greenD1.png,Delta,3,1,7.6404296,30,FALSE,12
11024,training_phase_2,1,2,48,materials/images/blackG2.png,Gamma,0,0,0.6668475,30,FALSE,12
11026,training_phase_1,1,1,1,materials/images/redA1.png,Alpha,1,1,7.954045,11,FALSE,1
11026,training_phase_1,1,1,2,materials/images/redA3.png,Alpha,1,1,2.7888744,11,FALSE,2
11026,training_phase_1,1,1,3,materials/images/redA5.png,Alpha,1,1,2.8655258,11,FALSE,3
11026,training_phase_1,1,1,4,materials/images/blueB6.png,Beta,0,1,5.6079461,11,FALSE,4
11026,training_phase_1,1,1,5,materials/images/blueB2.png,Beta,1,0,2.8597029,11,FALSE,4
11026,training_phase_1,1,1,6,materials/images/blueB1.png,Beta,0,1,2.347451,11,FALSE,5
11026,training_phase_1,1,1,7,materials/images/redA4.png,Alpha,1,1,0.7244296,11,FALSE,6
11026,training_phase_1,1,1,8,materials/images/redA6.png,Alpha,1,1,2.3682021,11,FALSE,7
11026,training_phase_1,1,1,9,materials/images/blueB4.png,Beta,1,0,0.7549756,11,FALSE,7
11026,training_phase_1,1,1,10,materials/images/blueB3.png,Beta,0,1,0.4635611,11,FALSE,8
11026,training_phase_1,1,1,11,materials/images/blueB5.png,Beta,1,0,1.5032121,11,FALSE,8
11026,training_phase_1,1,1,12,materials/images/redA2.png,Alpha,1,1,2.0644053,11,FALSE,9
11026,training_phase_1,1,2,13,materials/images/blueB4.png,Beta,0,1,0.3568473,11,FALSE,1
11026,training_phase_1,1,2,14,materials/images/redA6.png,Alpha,0,0,1.1466933,11,FALSE,1
11026,training_phase_1,1,2,15,materials/images/blueB2.png,Beta,0,1,0.2105175,11,FALSE,2
11026,training_phase_1,1,2,16,materials/images/redA5.png,Alpha,1,1,0.7196978,11,FALSE,3
11026,training_phase_1,1,2,17,materials/images/redA1.png,Alpha,0,0,0.1272837,11,FALSE,3
11026,training_phase_1,1,2,18,materials/images/blueB5.png,Beta,0,1,1.8264087,11,FALSE,4
11026,training_phase_1,1,2,19,materials/images/redA4.png,Alpha,0,0,2.8461736,11,FALSE,4
11026,training_phase_1,1,2,20,materials/images/redA3.png,Alpha,1,1,0.5462217,11,FALSE,5
11026,training_phase_1,1,2,21,materials/images/blueB1.png,Beta,0,1,0.2493754,11,FALSE,6
11026,training_phase_1,1,2,22,materials/images/blueB3.png,Beta,0,1,0.319527,11,FALSE,7
11026,training_phase_1,1,2,23,materials/images/blueB6.png,Beta,0,1,0.6608238,11,FALSE,8
11026,training_phase_1,1,2,24,materials/images/redA2.png,Alpha,1,1,3.3703328,11,FALSE,9
11026,training_phase_1,1,3,25,materials/images/redA4.png,Alpha,1,1,0.8643186,11,FALSE,1
11026,training_phase_1,1,3,26,materials/images/redA6.png,Alpha,1,1,0.2108627,11,FALSE,2
11026,training_phase_1,1,3,27,materials/images/blueB2.png,Beta,0,1,0.2558285,11,FALSE,3
11026,training_phase_1,1,3,28,materials/images/blueB3.png,Beta,0,1,0.0697935,11,FALSE,4
11026,training_phase_1,1,3,29,materials/images/redA1.png,Alpha,1,1,1.9752728,11,FALSE,5
11026,training_phase_1,1,3,30,materials/images/redA5.png,Alpha,1,1,2.1494188,11,FALSE,6
11026,training_phase_1,1,3,31,materials/images/blueB6.png,Beta,0,1,0.4680566,11,FALSE,7
11026,training_phase_1,1,3,32,materials/images/blueB1.png,Beta,0,1,0.078425,11,FALSE,8
11026,training_phase_1,1,3,33,materials/images/blueB5.png,Beta,0,1,1.685081,11,FALSE,9
11026,training_phase_1,1,3,34,materials/images/redA2.png,Alpha,1,1,0.3902998,11,FALSE,10
11026,training_phase_1,1,3,35,materials/images/blueB4.png,Beta,1,0,6.7578131,11,FALSE,10
11026,training_phase_1,1,3,36,materials/images/redA3.png,Alpha,1,1,1.0004116,11,TRUE,11
11026,test_phase,1,1,1,materials/images/yGen3.png,test,0,2,5.1785815,1,TRUE,1
11026,test_phase,1,1,2,materials/images/blueB2.png,Beta,0,2,1.5296455,1,TRUE,2
11026,test_phase,1,1,3,materials/images/yGen4.png,test,0,2,1.4202341,1,TRUE,3
11026,test_phase,1,1,4,materials/images/blueB4.png,Beta,0,2,3.8317974,1,TRUE,4
11026,test_phase,1,1,5,materials/images/yGen1.png,test,1,2,7.7863775,1,TRUE,5
11026,test_phase,1,1,6,materials/images/redA5.png,Alpha,1,2,0.3950459,1,TRUE,6
11026,test_phase,1,1,7,materials/images/blueB1.png,Beta,0,2,0.2777234,1,TRUE,7
11026,test_phase,1,1,8,materials/images/yGen2.png,test,0,2,1.9199046,1,TRUE,8
11026,test_phase,1,1,9,materials/images/redA3.png,Alpha,1,2,0.7075353,1,TRUE,9
11026,test_phase,1,1,10,materials/images/redA2.png,Alpha,1,2,0.1063808,1,TRUE,10
11026,test_phase,1,1,11,materials/images/blueB3.png,Beta,0,2,2.3881367,1,TRUE,11
11026,test_phase,1,1,12,materials/images/redA6.png,Alpha,1,2,1.8066404,1,TRUE,12
11026,test_phase,1,1,13,materials/images/redA1.png,Alpha,1,2,0.6458216,1,TRUE,13
11026,test_phase,1,1,14,materials/images/redA4.png,Alpha,1,2,3.5113895,1,TRUE,14
11026,test_phase,1,1,15,materials/images/blueB5.png,Beta,0,2,0.023563,1,TRUE,15
11026,test_phase,1,1,16,materials/images/yGen5.png,test,1,2,5.0339265,1,TRUE,16
11026,test_phase,1,1,17,materials/images/blueB6.png,Beta,1,2,0.0245567,1,TRUE,17
11026,training_phase_2,1,1,1,materials/images/greenD4.png,Delta,0,0,3.3456721,30,FALSE,0
11026,training_phase_2,1,1,2,materials/images/redA6.png,Alpha,1,1,1.8697852,30,FALSE,1
11026,training_phase_2,1,1,3,materials/images/redA3.png,Alpha,1,1,6.0083648,30,FALSE,2
11026,training_phase_2,1,1,4,materials/images/redA5.png,Alpha,1,1,3.3729888,30,FALSE,3
11026,training_phase_2,1,1,5,materials/images/greenD3.png,Delta,3,1,4.3946532,30,FALSE,4
11026,training_phase_2,1,1,6,materials/images/blackG5.png,Gamma,1,0,3.567685,30,FALSE,4
11026,training_phase_2,1,1,7,materials/images/blackG4.png,Gamma,1,0,2.527325,30,FALSE,4
11026,training_phase_2,1,1,8,materials/images/blackG2.png,Gamma,1,0,5.7385432,30,FALSE,4
11026,training_phase_2,1,1,9,materials/images/blueB2.png,Beta,2,0,5.8559236,30,FALSE,4
11026,training_phase_2,1,1,10,materials/images/blueB3.png,Beta,3,0,5.3332304,30,FALSE,4
11026,training_phase_2,1,1,11,materials/images/redA2.png,Alpha,1,1,27.885787,30,FALSE,5
11026,training_phase_2,1,1,12,materials/images/greenD2.png,Delta,0,0,15.461517,30,FALSE,5
11026,training_phase_2,1,1,13,materials/images/blueB1.png,Beta,1,0,3.4831491,30,FALSE,5
11026,training_phase_2,1,1,14,materials/images/greenD1.png,Delta,0,0,6.8430768,30,FALSE,5
11026,training_phase_2,1,1,15,materials/images/blueB6.png,Beta,2,0,3.140743,30,FALSE,5
11026,training_phase_2,1,1,16,materials/images/blackG3.png,Gamma,0,0,6.311226,30,FALSE,5
11026,training_phase_2,1,1,17,materials/images/blueB4.png,Beta,1,0,1.44937,30,FALSE,5
11026,training_phase_2,1,1,18,materials/images/greenD6.png,Delta,2,0,6.7848888,30,FALSE,5
11026,training_phase_2,1,1,19,materials/images/greenD5.png,Delta,3,1,5.6290384,30,FALSE,6
11026,training_phase_2,1,1,20,materials/images/blackG6.png,Gamma,0,0,2.8988794,30,FALSE,6
11026,training_phase_2,1,1,21,materials/images/redA4.png,Alpha,1,1,11.9881122,30,FALSE,7
11026,training_phase_2,1,1,22,materials/images/redA1.png,Alpha,1,1,6.6364659,30,FALSE,8
11026,training_phase_2,1,1,23,materials/images/blackG1.png,Gamma,1,0,4.7782254,30,FALSE,8
11026,training_phase_2,1,1,24,materials/images/blueB5.png,Beta,0,1,14.9424711,30,FALSE,9
11026,training_phase_2,1,2,25,materials/images/redA1.png,Alpha,1,1,1.7657636,30,FALSE,1
11026,training_phase_2,1,2,26,materials/images/blackG3.png,Gamma,2,1,11.4310113,30,FALSE,2
11026,training_phase_2,1,2,27,materials/images/blueB1.png,Beta,3,0,1.081496,30,FALSE,2
11026,training_phase_2,1,2,28,materials/images/greenD5.png,Delta,3,1,11.6415948,30,FALSE,3
11026,training_phase_2,1,2,29,materials/images/redA5.png,Alpha,0,0,12.9298572,30,FALSE,3
11026,training_phase_2,1,2,30,materials/images/blackG1.png,Gamma,2,1,12.276761,30,FALSE,4
11026,training_phase_2,1,2,31,materials/images/blueB5.png,Beta,0,1,6.6151856,30,FALSE,5
11026,training_phase_2,1,2,32,materials/images/blackG2.png,Gamma,2,1,8.5724993,30,FALSE,6
11026,training_phase_2,1,2,33,materials/images/greenD1.png,Delta,3,1,13.1009091,30,FALSE,7
11026,training_phase_2,1,2,34,materials/images/blackG6.png,Gamma,2,1,8.6335428,30,FALSE,8
11026,training_phase_2,1,2,35,materials/images/greenD2.png,Delta,3,1,11.1912765,30,FALSE,9
11026,training_phase_2,1,2,36,materials/images/redA6.png,Alpha,2,0,21.167378,30,FALSE,9
11026,training_phase_2,1,2,37,materials/images/greenD3.png,Delta,3,1,4.5979224,30,FALSE,10
11026,training_phase_2,1,2,38,materials/images/redA3.png,Alpha,1,1,6.7115757,30,FALSE,11
11026,training_phase_2,1,2,39,materials/images/greenD4.png,Delta,3,1,12.4960126,30,FALSE,12
11026,training_phase_2,1,2,40,materials/images/greenD6.png,Delta,3,1,2.7964801,30,FALSE,13
11026,training_phase_2,1,2,41,materials/images/redA4.png,Alpha,1,1,3.946068,30,FALSE,14
11026,training_phase_2,1,2,42,materials/images/blueB6.png,Beta,0,1,27.1441869,30,FALSE,15
11026,training_phase_2,1,2,43,materials/images/blueB2.png,Beta,2,0,18.4554697,30,FALSE,15
11026,training_phase_2,1,2,44,materials/images/blackG4.png,Gamma,2,1,11.8247181,30,FALSE,16
11026,training_phase_2,1,2,45,materials/images/blueB3.png,Beta,0,1,19.6673933,30,FALSE,17
11026,training_phase_2,1,2,46,materials/images/blackG5.png,Gamma,2,1,2.2197578,30,FALSE,18
11026,training_phase_2,1,2,47,materials/images/blueB4.png,Beta,0,1,4.0944886,30,FALSE,19
11026,training_phase_2,1,2,48,materials/images/redA2.png,Alpha,1,1,9.1029346,30,FALSE,20
11030,training_phase_1,1,1,1,materials/images/redA3.png,Alpha,1,1,4.2063776,11,FALSE,1
11030,training_phase_1,1,1,2,materials/images/redA6.png,Alpha,1,1,1.4885063,11,FALSE,2
11030,training_phase_1,1,1,3,materials/images/redA4.png,Alpha,1,1,2.4124479,11,FALSE,3
11030,training_phase_1,1,1,4,materials/images/redA2.png,Alpha,1,1,2.2248987,11,FALSE,4
11030,training_phase_1,1,1,5,materials/images/blueB3.png,Beta,1,0,1.7286037,11,FALSE,4
11030,training_phase_1,1,1,6,materials/images/blueB1.png,Beta,0,1,1.9807709,11,FALSE,5
11030,training_phase_1,1,1,7,materials/images/redA1.png,Alpha,1,1,1.2920709,11,FALSE,6
11030,training_phase_1,1,1,8,materials/images/blueB5.png,Beta,1,0,2.9787591,11,FALSE,6
11030,training_phase_1,1,1,9,materials/images/redA5.png,Alpha,1,1,2.262167,11,FALSE,7
11030,training_phase_1,1,1,10,materials/images/blueB2.png,Beta,0,1,0.6702209,11,FALSE,8
11030,training_phase_1,1,1,11,materials/images/blueB6.png,Beta,0,1,1.3620074,11,FALSE,9
11030,training_phase_1,1,1,12,materials/images/blueB4.png,Beta,1,0,0.2888375,11,FALSE,9
11030,training_phase_1,1,2,13,materials/images/redA3.png,Alpha,1,1,1.5191715,11,FALSE,1
11030,training_phase_1,1,2,14,materials/images/blueB1.png,Beta,0,1,1.0040391,11,FALSE,2
11030,training_phase_1,1,2,15,materials/images/redA6.png,Alpha,1,1,1.4431702,11,FALSE,3
11030,training_phase_1,1,2,16,materials/images/blueB5.png,Beta,0,1,3.2184683,11,FALSE,4
11030,training_phase_1,1,2,17,materials/images/blueB4.png,Beta,0,1,1.1446763,11,FALSE,5
11030,training_phase_1,1,2,18,materials/images/redA5.png,Alpha,1,1,0.0382614,11,FALSE,6
11030,training_phase_1,1,2,19,materials/images/redA2.png,Alpha,1,1,0.6674209,11,FALSE,7
11030,training_phase_1,1,2,20,materials/images/blueB3.png,Beta,0,1,0.2106256,11,FALSE,8
11030,training_phase_1,1,2,21,materials/images/blueB6.png,Beta,0,1,1.2701692,11,FALSE,9
11030,training_phase_1,1,2,22,materials/images/blueB2.png,Beta,0,1,1.2154473,11,FALSE,10
11030,training_phase_1,1,2,23,materials/images/redA1.png,Alpha,1,1,0.3695163,11,TRUE,11
11030,training_phase_1,1,2,24,materials/images/redA4.png,Alpha,1,1,0.7478183,11,TRUE,12
11030,test_phase,1,1,1,materials/images/blueB6.png,Beta,0,2,3.7383626,1,TRUE,1
11030,test_phase,1,1,2,materials/images/yGen1.png,test,1,2,0.6801038,1,TRUE,2
11030,test_phase,1,1,3,materials/images/blueB1.png,Beta,0,2,0.1463605,1,TRUE,3
11030,test_phase,1,1,4,materials/images/yGen2.png,test,1,2,0.2484998,1,TRUE,4
11030,test_phase,1,1,5,materials/images/redA3.png,Alpha,1,2,0.8087472,1,TRUE,5
11030,test_phase,1,1,6,materials/images/blueB2.png,Beta,0,2,0.3844602,1,TRUE,6
11030,test_phase,1,1,7,materials/images/yGen3.png,test,1,2,0.0938061,1,TRUE,7
11030,test_phase,1,1,8,materials/images/blueB4.png,Beta,1,2,1.1936825,1,TRUE,8
11030,test_phase,1,1,9,materials/images/blueB3.png,Beta,0,2,0.6640177,1,TRUE,9
11030,test_phase,1,1,10,materials/images/redA1.png,Alpha,1,2,0.0350128,1,TRUE,10
11030,test_phase,1,1,11,materials/images/redA6.png,Alpha,1,2,0.7851752,1,TRUE,11
11030,test_phase,1,1,12,materials/images/yGen5.png,test,0,2,0.0273664,1,TRUE,12
11030,test_phase,1,1,13,materials/images/redA2.png,Alpha,1,2,0.247661,1,TRUE,13
11030,test_phase,1,1,14,materials/images/redA4.png,Alpha,1,2,0.4231833,1,TRUE,14
11030,test_phase,1,1,15,materials/images/yGen4.png,test,0,2,0.9244673,1,TRUE,15
11030,test_phase,1,1,16,materials/images/blueB5.png,Beta,0,2,0.6688459,1,TRUE,16
11030,test_phase,1,1,17,materials/images/redA5.png,Alpha,1,2,0.1312559,1,TRUE,17
11030,training_phase_2,1,1,1,materials/images/redA6.png,Alpha,1,1,1.9784838,30,FALSE,1
11030,training_phase_2,1,1,2,materials/images/redA5.png,Alpha,1,1,1.1221066,30,FALSE,2
11030,training_phase_2,1,1,3,materials/images/redA1.png,Alpha,1,1,1.3734273,30,FALSE,3
11030,training_phase_2,1,1,4,materials/images/blueB5.png,Beta,0,1,0.3353534,30,FALSE,4
11030,training_phase_2,1,1,5,materials/images/blackG4.png,Gamma,0,0,0.3736809,30,FALSE,4
11030,training_phase_2,1,1,6,materials/images/blueB3.png,Beta,0,1,0.4952722,30,FALSE,5
11030,training_phase_2,1,1,7,materials/images/blackG6.png,Gamma,2,1,0.2518226,30,FALSE,6
11030,training_phase_2,1,1,8,materials/images/greenD3.png,Delta,0,0,0.1357644,30,FALSE,6
11030,training_phase_2,1,1,9,materials/images/blueB4.png,Beta,1,0,0.3856541,30,FALSE,6
11030,training_phase_2,1,1,10,materials/images/blackG3.png,Gamma,0,0,1.5581588,30,FALSE,6
11030,training_phase_2,1,1,11,materials/images/blackG5.png,Gamma,2,1,2.3085351,30,FALSE,7
11030,training_phase_2,1,1,12,materials/images/blueB6.png,Beta,0,1,2.7869486,30,FALSE,8
11030,training_phase_2,1,1,13,materials/images/greenD6.png,Delta,0,0,3.5622953,30,FALSE,8
11030,training_phase_2,1,1,14,materials/images/blueB1.png,Beta,0,1,2.4911459,30,FALSE,9
11030,training_phase_2,1,1,15,materials/images/greenD5.png,Delta,3,1,1.3691121,30,FALSE,10
11030,training_phase_2,1,1,16,materials/images/greenD2.png,Delta,0,0,5.7838658,30,FALSE,10
11030,training_phase_2,1,1,17,materials/images/redA2.png,Alpha,1,1,0.2978425,30,FALSE,11
11030,training_phase_2,1,1,18,materials/images/blueB2.png,Beta,0,1,4.0919296,30,FALSE,12
11030,training_phase_2,1,1,19,materials/images/redA3.png,Alpha,1,1,0.1423467,30,FALSE,13
11030,training_phase_2,1,1,20,materials/images/greenD4.png,Delta,2,0,1.4050853,30,FALSE,13
11030,training_phase_2,1,1,21,materials/images/redA4.png,Alpha,1,1,0.7620027,30,FALSE,14
11030,training_phase_2,1,1,22,materials/images/blackG1.png,Gamma,1,0,2.1479008,30,FALSE,14
11030,training_phase_2,1,1,23,materials/images/blackG2.png,Gamma,3,0,4.6335612,30,FALSE,14
11030,training_phase_2,1,1,24,materials/images/greenD1.png,Delta,0,0,1.1902396,30,FALSE,14
11030,training_phase_2,1,2,25,materials/images/blackG1.png,Gamma,1,0,0.8575204,30,FALSE,0
11030,training_phase_2,1,2,26,materials/images/greenD6.png,Delta,2,0,1.0994312,30,FALSE,0
11030,training_phase_2,1,2,27,materials/images/blackG6.png,Gamma,2,1,1.9226738,30,FALSE,1
11030,training_phase_2,1,2,28,materials/images/greenD2.png,Delta,3,1,1.9956401,30,FALSE,2
11030,training_phase_2,1,2,29,materials/images/blackG5.png,Gamma,2,1,1.3487106,30,FALSE,3
11030,training_phase_2,1,2,30,materials/images/greenD4.png,Delta,3,1,1.2964908,30,FALSE,4
11030,training_phase_2,1,2,31,materials/images/greenD3.png,Delta,3,1,1.2771886,30,FALSE,5
11030,training_phase_2,1,2,32,materials/images/redA3.png,Alpha,1,1,1.5376488,30,FALSE,6
11030,training_phase_2,1,2,33,materials/images/blueB1.png,Beta,0,1,2.3195997,30,FALSE,7
11030,training_phase_2,1,2,34,materials/images/greenD5.png,Delta,2,0,2.8758731,30,FALSE,7
11030,training_phase_2,1,2,35,materials/images/blueB3.png,Beta,3,0,2.4117243,30,FALSE,7
11030,training_phase_2,1,2,36,materials/images/blueB2.png,Beta,0,1,4.2176667,30,FALSE,8
11030,training_phase_2,1,2,37,materials/images/redA1.png,Alpha,1,1,0.5930662,30,FALSE,9
11030,training_phase_2,1,2,38,materials/images/greenD1.png,Delta,3,1,7.2907081,30,FALSE,10
11030,training_phase_2,1,2,39,materials/images/blueB6.png,Beta,0,1,1.6590498,30,FALSE,11
11030,training_phase_2,1,2,40,materials/images/redA5.png,Alpha,1,1,1.5602633,30,FALSE,12
11030,training_phase_2,1,2,41,materials/images/redA6.png,Alpha,1,1,0.8391161,30,FALSE,13
11030,training_phase_2,1,2,42,materials/images/blueB5.png,Beta,1,0,2.797992,30,FALSE,13
11030,training_phase_2,1,2,43,materials/images/blueB4.png,Beta,1,0,0.2308295,30,FALSE,13
11030,training_phase_2,1,2,44,materials/images/blackG4.png,Gamma,0,0,3.5314904,30,FALSE,13
11030,training_phase_2,1,2,45,materials/images/blackG3.png,Gamma,0,0,8.0573833,30,FALSE,13
11030,training_phase_2,1,2,46,materials/images/redA4.png,Alpha,1,1,1.7646974,30,FALSE,14
11030,training_phase_2,1,2,47,materials/images/blackG2.png,Gamma,0,0,4.1335297,30,FALSE,14
11030,training_phase_2,1,2,48,materials/images/redA2.png,Alpha,1,1,0.2645123,30,FALSE,15
11032,training_phase_1,1,1,1,materials/images/redA4.png,Alpha,1,1,1.9021446,11,FALSE,1
11032,training_phase_1,1,1,2,materials/images/redA6.png,Alpha,1,1,2.7522139,11,FALSE,2
11032,training_phase_1,1,1,3,materials/images/blueB5.png,Beta,1,0,2.757932,11,FALSE,2
11032,training_phase_1,1,1,4,materials/images/blueB3.png,Beta,1,0,0.5968159,11,FALSE,2
11032,training_phase_1,1,1,5,materials/images/blueB1.png,Beta,1,0,0.6370887,11,FALSE,2
11032,training_phase_1,1,1,6,materials/images/blueB6.png,Beta,1,0,1.0142216,11,FALSE,2
11032,training_phase_1,1,1,7,materials/images/redA2.png,Alpha,0,0,0.1842441,11,FALSE,2
11032,training_phase_1,1,1,8,materials/images/redA1.png,Alpha,1,1,0.6263784,11,FALSE,3
11032,training_phase_1,1,1,9,materials/images/redA3.png,Alpha,1,1,1.380085,11,FALSE,4
11032,training_phase_1,1,1,10,materials/images/blueB4.png,Beta,0,1,0.7784406,11,FALSE,5
11032,training_phase_1,1,1,11,materials/images/blueB2.png,Beta,0,1,0.1174746,11,FALSE,6
11032,training_phase_1,1,1,12,materials/images/redA5.png,Alpha,1,1,0.4141424,11,FALSE,7
11032,training_phase_1,1,2,13,materials/images/redA6.png,Alpha,1,1,0.4205475,11,FALSE,1
11032,training_phase_1,1,2,14,materials/images/redA1.png,Alpha,0,0,0.7671045,11,FALSE,1
11032,training_phase_1,1,2,15,materials/images/redA3.png,Alpha,1,1,1.3766919,11,FALSE,2
11032,training_phase_1,1,2,16,materials/images/blueB4.png,Beta,0,1,1.4706278,11,FALSE,3
11032,training_phase_1,1,2,17,materials/images/redA4.png,Alpha,1,1,0.0192955,11,FALSE,4
11032,training_phase_1,1,2,18,materials/images/redA2.png,Alpha,0,0,0.8118802,11,FALSE,4
11032,training_phase_1,1,2,19,materials/images/blueB2.png,Beta,0,1,0.3899616,11,FALSE,5
11032,training_phase_1,1,2,20,materials/images/blueB5.png,Beta,0,1,0.4815337,11,FALSE,6
11032,training_phase_1,1,2,21,materials/images/redA5.png,Alpha,1,1,0.0180072,11,FALSE,7
11032,training_phase_1,1,2,22,materials/images/blueB1.png,Beta,0,1,0.1739707,11,FALSE,8
11032,training_phase_1,1,2,23,materials/images/blueB6.png,Beta,0,1,0.018723,11,FALSE,9
11032,training_phase_1,1,2,24,materials/images/blueB3.png,Beta,0,1,0.6058819,11,FALSE,10
11032,training_phase_1,1,3,25,materials/images/redA3.png,Alpha,0,0,0.396514,11,FALSE,0
11032,training_phase_1,1,3,26,materials/images/redA1.png,Alpha,0,0,0.7046793,11,FALSE,0
11032,training_phase_1,1,3,27,materials/images/redA5.png,Alpha,1,1,0.1884398,11,FALSE,1
11032,training_phase_1,1,3,28,materials/images/blueB2.png,Beta,0,1,1.0283208,11,FALSE,2
11032,training_phase_1,1,3,29,materials/images/redA4.png,Alpha,1,1,0.0230778,11,FALSE,3
11032,training_phase_1,1,3,30,materials/images/redA6.png,Alpha,0,0,0.1471416,11,FALSE,3
11032,training_phase_1,1,3,31,materials/images/blueB5.png,Beta,0,1,0.1003065,11,FALSE,4
11032,training_phase_1,1,3,32,materials/images/redA2.png,Alpha,1,1,0.8597225,11,FALSE,5
11032,training_phase_1,1,3,33,materials/images/blueB1.png,Beta,0,1,0.4668828,11,FALSE,6
11032,training_phase_1,1,3,34,materials/images/blueB6.png,Beta,0,1,0.2299729,11,FALSE,7
11032,training_phase_1,1,3,35,materials/images/blueB4.png,Beta,0,1,0.3662663,11,FALSE,8
11032,training_phase_1,1,3,36,materials/images/blueB3.png,Beta,0,1,0.0192596,11,FALSE,9
11032,training_phase_1,1,4,37,materials/images/blueB2.png,Beta,0,1,0.0230148,11,FALSE,1
11032,training_phase_1,1,4,38,materials/images/redA6.png,Alpha,1,1,0.450525,11,FALSE,2
11032,training_phase_1,1,4,39,materials/images/blueB3.png,Beta,0,1,0.023559,11,FALSE,3
11032,training_phase_1,1,4,40,materials/images/redA2.png,Alpha,0,0,0.0190305,11,FALSE,3
11032,training_phase_1,1,4,41,materials/images/redA1.png,Alpha,0,0,0.208896,11,FALSE,3
11032,training_phase_1,1,4,42,materials/images/blueB4.png,Beta,0,1,0.0186476,11,FALSE,4
11032,training_phase_1,1,4,43,materials/images/redA4.png,Alpha,1,1,0.0922222,11,FALSE,5
11032,training_phase_1,1,4,44,materials/images/blueB6.png,Beta,0,1,2.3018258,11,FALSE,6
11032,training_phase_1,1,4,45,materials/images/blueB5.png,Beta,0,1,2.536598,11,FALSE,7
11032,training_phase_1,1,4,46,materials/images/blueB1.png,Beta,0,1,0.1434593,11,FALSE,8
11032,training_phase_1,1,4,47,materials/images/redA3.png,Alpha,0,0,0.7285381,11,FALSE,8
11032,training_phase_1,1,4,48,materials/images/redA5.png,Alpha,0,0,0.1734073,11,FALSE,8
11032,training_phase_1,1,5,49,materials/images/blueB5.png,Beta,0,1,0.4795986,11,FALSE,1
11032,training_phase_1,1,5,50,materials/images/redA1.png,Alpha,1,1,0.5156722,11,FALSE,2
11032,training_phase_1,1,5,51,materials/images/blueB6.png,Beta,0,1,0.3158953,11,FALSE,3
11032,training_phase_1,1,5,52,materials/images/blueB1.png,Beta,0,1,0.040933,11,FALSE,4
11032,training_phase_1,1,5,53,materials/images/redA2.png,Alpha,1,1,0.249568,11,FALSE,5
11032,training_phase_1,1,5,54,materials/images/redA4.png,Alpha,1,1,2.5250476,11,FALSE,6
11032,training_phase_1,1,5,55,materials/images/blueB4.png,Beta,0,1,0.4316163,11,FALSE,7
11032,training_phase_1,1,5,56,materials/images/redA5.png,Alpha,1,1,0.8059671,11,FALSE,8
11032,training_phase_1,1,5,57,materials/images/redA6.png,Alpha,1,1,1.3724636,11,FALSE,9
11032,training_phase_1,1,5,58,materials/images/blueB2.png,Beta,0,1,0.7599247,11,FALSE,10
11032,training_phase_1,1,5,59,materials/images/redA3.png,Alpha,1,1,0.1906936,11,TRUE,11
11032,training_phase_1,1,5,60,materials/images/blueB3.png,Beta,0,1,0.5104162,11,TRUE,12
11032,test_phase,1,1,1,materials/images/yGen1.png,test,1,2,5.1940687,1,TRUE,1
11032,test_phase,1,1,2,materials/images/blueB5.png,Beta,0,2,0.425172,1,TRUE,2
11032,test_phase,1,1,3,materials/images/blueB3.png,Beta,0,2,0.1633723,1,TRUE,3
11032,test_phase,1,1,4,materials/images/redA1.png,Alpha,1,2,0.3463433,1,TRUE,4
11032,test_phase,1,1,5,materials/images/yGen4.png,test,0,2,0.1235587,1,TRUE,5
11032,test_phase,1,1,6,materials/images/yGen2.png,test,1,2,0.7284962,1,TRUE,6
11032,test_phase,1,1,7,materials/images/yGen5.png,test,0,2,0.3323155,1,TRUE,7
11032,test_phase,1,1,8,materials/images/blueB1.png,Beta,0,2,0.0806005,1,TRUE,8
11032,test_phase,1,1,9,materials/images/blueB4.png,Beta,1,2,0.2525569,1,TRUE,9
11032,test_phase,1,1,10,materials/images/redA5.png,Alpha,0,2,0.0187878,1,TRUE,10
11032,test_phase,1,1,11,materials/images/blueB2.png,Beta,0,2,0.0237251,1,TRUE,11
11032,test_phase,1,1,12,materials/images/redA4.png,Alpha,1,2,0.1652901,1,TRUE,12
11032,test_phase,1,1,13,materials/images/redA3.png,Alpha,1,2,0.2463995,1,TRUE,13
11032,test_phase,1,1,14,materials/images/yGen3.png,test,0,2,0.1021721,1,TRUE,14
11032,test_phase,1,1,15,materials/images/blueB6.png,Beta,0,2,0.0500484,1,TRUE,15
11032,test_phase,1,1,16,materials/images/redA2.png,Alpha,1,2,0.161045,1,TRUE,16
11032,test_phase,1,1,17,materials/images/redA6.png,Alpha,0,2,0.8076082,1,TRUE,17
11032,training_phase_2,1,1,1,materials/images/greenD2.png,Delta,0,0,0.477257,30,FALSE,0
11032,training_phase_2,1,1,2,materials/images/redA5.png,Alpha,1,1,0.6427976,30,FALSE,1
11032,training_phase_2,1,1,3,materials/images/redA6.png,Alpha,1,1,0.022681,30,FALSE,2
11032,training_phase_2,1,1,4,materials/images/greenD4.png,Delta,3,1,0.160027,30,FALSE,3
11032,training_phase_2,1,1,5,materials/images/blueB5.png,Beta,0,1,1.2701083,30,FALSE,4
11032,training_phase_2,1,1,6,materials/images/redA2.png,Alpha,1,1,0.4856246,30,FALSE,5
11032,training_phase_2,1,1,7,materials/images/blueB4.png,Beta,0,1,0.0188069,30,FALSE,6
11032,training_phase_2,1,1,8,materials/images/blackG3.png,Gamma,2,1,0.0194368,30,FALSE,7
11032,training_phase_2,1,1,9,materials/images/greenD6.png,Delta,3,1,0.0229592,30,FALSE,8
11032,training_phase_2,1,1,10,materials/images/blueB6.png,Beta,0,1,0.0753494,30,FALSE,9
11032,training_phase_2,1,1,11,materials/images/greenD5.png,Delta,3,1,0.4142948,30,FALSE,10
11032,training_phase_2,1,1,12,materials/images/blackG1.png,Gamma,0,0,1.4910906,30,FALSE,10
11032,training_phase_2,1,1,13,materials/images/blackG6.png,Gamma,0,0,0.2145591,30,FALSE,10
11032,training_phase_2,1,1,14,materials/images/blackG4.png,Gamma,0,0,0.3893216,30,FALSE,10
11032,training_phase_2,1,1,15,materials/images/blackG5.png,Gamma,2,1,0.167337,30,FALSE,11
11032,training_phase_2,1,1,16,materials/images/blueB2.png,Beta,3,0,4.0426793,30,FALSE,11
11032,training_phase_2,1,1,17,materials/images/redA1.png,Alpha,1,1,0.7098313,30,FALSE,12
11032,training_phase_2,1,1,18,materials/images/greenD1.png,Delta,3,1,0.6707838,30,FALSE,13
11032,training_phase_2,1,1,19,materials/images/redA3.png,Alpha,1,1,0.0231812,30,FALSE,14
11032,training_phase_2,1,1,20,materials/images/blueB1.png,Beta,2,0,0.2990792,30,FALSE,14
11032,training_phase_2,1,1,21,materials/images/redA4.png,Alpha,0,0,0.1044689,30,FALSE,14
11032,training_phase_2,1,1,22,materials/images/blueB3.png,Beta,2,0,0.8128279,30,FALSE,14
11032,training_phase_2,1,1,23,materials/images/blackG2.png,Gamma,0,0,0.0186074,30,FALSE,14
11032,training_phase_2,1,1,24,materials/images/greenD3.png,Delta,3,1,1.6934989,30,FALSE,15
11032,training_phase_2,1,2,25,materials/images/redA6.png,Alpha,0,0,2.0117143,30,FALSE,0
11032,training_phase_2,1,2,26,materials/images/blueB5.png,Beta,0,1,0.9279931,30,FALSE,1
11032,training_phase_2,1,2,27,materials/images/redA5.png,Alpha,1,1,2.1878032,30,FALSE,2
11032,training_phase_2,1,2,28,materials/images/blueB3.png,Beta,2,0,0.2462892,30,FALSE,2
11032,training_phase_2,1,2,29,materials/images/blackG6.png,Gamma,2,1,1.8241154,30,FALSE,3
11032,training_phase_2,1,2,30,materials/images/blueB4.png,Beta,1,0,0.4019894,30,FALSE,3
11032,training_phase_2,1,2,31,materials/images/blueB2.png,Beta,2,0,2.027002,30,FALSE,3
11032,training_phase_2,1,2,32,materials/images/greenD3.png,Delta,3,1,0.7527368,30,FALSE,4
11032,training_phase_2,1,2,33,materials/images/greenD6.png,Delta,2,0,1.8978317,30,FALSE,4
11032,training_phase_2,1,2,34,materials/images/redA3.png,Alpha,1,1,0.0191151,30,FALSE,5
11032,training_phase_2,1,2,35,materials/images/greenD4.png,Delta,2,0,1.2351537,30,FALSE,5
11032,training_phase_2,1,2,36,materials/images/blueB1.png,Beta,2,0,1.2703825,30,FALSE,5
11032,training_phase_2,1,2,37,materials/images/redA4.png,Alpha,1,1,0.8966675,30,FALSE,6
11032,training_phase_2,1,2,38,materials/images/blackG3.png,Gamma,0,0,0.6329771,30,FALSE,6
11032,training_phase_2,1,2,39,materials/images/blackG5.png,Gamma,0,0,0.6635569,30,FALSE,6
11032,training_phase_2,1,2,40,materials/images/redA2.png,Alpha,1,1,0.2762578,30,FALSE,7
11032,training_phase_2,1,2,41,materials/images/blackG4.png,Gamma,2,1,0.4382277,30,FALSE,8
11032,training_phase_2,1,2,42,materials/images/greenD1.png,Delta,0,0,0.1727306,30,FALSE,8
11032,training_phase_2,1,2,43,materials/images/redA1.png,Alpha,1,1,0.0228792,30,FALSE,9
11032,training_phase_2,1,2,44,materials/images/greenD5.png,Delta,2,0,0.0630957,30,FALSE,9
11032,training_phase_2,1,2,45,materials/images/blackG1.png,Gamma,1,0,1.5818569,30,FALSE,9
11032,training_phase_2,1,2,46,materials/images/blackG2.png,Gamma,0,0,1.2407594,30,FALSE,9
11032,training_phase_2,1,2,47,materials/images/greenD2.png,Delta,0,0,0.7425976,30,FALSE,9
11032,training_phase_2,1,2,48,materials/images/blueB6.png,Beta,2,0,2.7639489,30,FALSE,9
11034,training_phase_1,1,1,1,materials/images/redA4.png,Alpha,1,1,1.3850676,11,FALSE,1
11034,training_phase_1,1,1,2,materials/images/blueB5.png,Beta,1,0,2.0583633,11,FALSE,1
11034,training_phase_1,1,1,3,materials/images/redA1.png,Alpha,1,1,0.7100163,11,FALSE,2
11034,training_phase_1,1,1,4,materials/images/blueB1.png,Beta,1,0,0.5850256,11,FALSE,2
11034,training_phase_1,1,1,5,materials/images/redA5.png,Alpha,0,0,0.5838671,11,FALSE,2
11034,training_phase_1,1,1,6,materials/images/blueB4.png,Beta,0,1,1.1000187,11,FALSE,3
11034,training_phase_1,1,1,7,materials/images/redA3.png,Alpha,1,1,3.0819584,11,FALSE,4
11034,training_phase_1,1,1,8,materials/images/blueB3.png,Beta,0,1,5.4428013,11,FALSE,5
11034,training_phase_1,1,1,9,materials/images/blueB2.png,Beta,1,0,8.2496152,11,FALSE,5
11034,training_phase_1,1,1,10,materials/images/redA6.png,Alpha,1,1,2.024977,11,FALSE,6
11034,training_phase_1,1,1,11,materials/images/blueB6.png,Beta,1,0,1.8851276,11,FALSE,6
11034,training_phase_1,1,1,12,materials/images/redA2.png,Alpha,1,1,1.2249533,11,FALSE,7
11034,training_phase_1,1,2,13,materials/images/redA4.png,Alpha,1,1,30.0366237,11,FALSE,1
11034,training_phase_1,1,2,14,materials/images/blueB5.png,Beta,1,0,2.6786523,11,FALSE,1
11034,training_phase_1,1,2,15,materials/images/blueB3.png,Beta,0,1,9.9278692,11,FALSE,2
11034,training_phase_1,1,2,16,materials/images/redA6.png,Alpha,0,0,18.1647285,11,FALSE,2
11034,training_phase_1,1,2,17,materials/images/blueB1.png,Beta,0,1,3.3780911,11,FALSE,3
11034,training_phase_1,1,2,18,materials/images/redA1.png,Alpha,1,1,0.3422382,11,FALSE,4
11034,training_phase_1,1,2,19,materials/images/blueB6.png,Beta,0,1,1.3842226,11,FALSE,5
11034,training_phase_1,1,2,20,materials/images/redA2.png,Alpha,1,1,0.0593353,11,FALSE,6
11034,training_phase_1,1,2,21,materials/images/blueB4.png,Beta,0,1,1.7042369,11,FALSE,7
11034,training_phase_1,1,2,22,materials/images/redA3.png,Alpha,0,0,4.0925011,11,FALSE,7
11034,training_phase_1,1,2,23,materials/images/redA5.png,Alpha,1,1,4.5162465,11,FALSE,8
11034,training_phase_1,1,2,24,materials/images/blueB2.png,Beta,0,1,0.941234,11,FALSE,9
11034,training_phase_1,1,3,25,materials/images/redA1.png,Alpha,1,1,0.2258204,11,FALSE,1
11034,training_phase_1,1,3,26,materials/images/blueB6.png,Beta,1,0,4.1931618,11,FALSE,1
11034,training_phase_1,1,3,27,materials/images/blueB1.png,Beta,0,1,1.8269453,11,FALSE,2
11034,training_phase_1,1,3,28,materials/images/redA3.png,Alpha,1,1,6.250587,11,FALSE,3
11034,training_phase_1,1,3,29,materials/images/blueB4.png,Beta,0,1,7.2046928,11,FALSE,4
11034,training_phase_1,1,3,30,materials/images/redA2.png,Alpha,1,1,0.3710562,11,FALSE,5
11034,training_phase_1,1,3,31,materials/images/redA4.png,Alpha,1,1,3.4182254,11,FALSE,6
11034,training_phase_1,1,3,32,materials/images/blueB2.png,Beta,1,0,16.5069137,11,FALSE,6
11034,training_phase_1,1,3,33,materials/images/blueB5.png,Beta,1,0,3.6371902,11,FALSE,6
11034,training_phase_1,1,3,34,materials/images/redA5.png,Alpha,1,1,4.5325249,11,FALSE,7
11034,training_phase_1,1,3,35,materials/images/blueB3.png,Beta,0,1,8.245846,11,FALSE,8
11034,training_phase_1,1,3,36,materials/images/redA6.png,Alpha,1,1,3.2472568,11,FALSE,9
11034,training_phase_1,1,4,37,materials/images/redA3.png,Alpha,1,1,1.9492733,11,FALSE,1
11034,training_phase_1,1,4,38,materials/images/blueB2.png,Beta,1,0,5.0557433,11,FALSE,1
11034,training_phase_1,1,4,39,materials/images/redA6.png,Alpha,1,1,16.353698,11,FALSE,2
11034,training_phase_1,1,4,40,materials/images/blueB6.png,Beta,0,1,5.1860114,11,FALSE,3
11034,training_phase_1,1,4,41,materials/images/redA5.png,Alpha,1,1,2.5815996,11,FALSE,4
11034,training_phase_1,1,4,42,materials/images/redA1.png,Alpha,1,1,0.1319622,11,FALSE,5
11034,training_phase_1,1,4,43,materials/images/redA2.png,Alpha,1,1,0.7516271,11,FALSE,6
11034,training_phase_1,1,4,44,materials/images/redA4.png,Alpha,1,1,1.9208884,11,FALSE,7
11034,training_phase_1,1,4,45,materials/images/blueB5.png,Beta,1,0,2.378569,11,FALSE,7
11034,training_phase_1,1,4,46,materials/images/blueB3.png,Beta,0,1,6.4802762,11,FALSE,8
11034,training_phase_1,1,4,47,materials/images/blueB4.png,Beta,0,1,1.6489987,11,FALSE,9
11034,training_phase_1,1,4,48,materials/images/blueB1.png,Beta,0,1,2.2265075,11,FALSE,10
11034,training_phase_1,1,5,49,materials/images/blueB6.png,Beta,0,1,13.9702601,11,FALSE,1
11034,training_phase_1,1,5,50,materials/images/redA5.png,Alpha,1,1,20.0505581,11,FALSE,2
11034,training_phase_1,1,5,51,materials/images/blueB1.png,Beta,0,1,1.8819279,11,FALSE,3
11034,training_phase_1,1,5,52,materials/images/redA2.png,Alpha,1,1,0.2757967,11,FALSE,4
11034,training_phase_1,1,5,53,materials/images/blueB3.png,Beta,0,1,9.4525149,11,FALSE,5
11034,training_phase_1,1,5,54,materials/images/redA6.png,Alpha,1,1,1.8830333,11,FALSE,6
11034,training_phase_1,1,5,55,materials/images/blueB2.png,Beta,0,1,1.2501582,11,FALSE,7
11034,training_phase_1,1,5,56,materials/images/redA4.png,Alpha,1,1,1.8164304,11,FALSE,8
11034,training_phase_1,1,5,57,materials/images/blueB5.png,Beta,0,1,4.5907742,11,FALSE,9
11034,training_phase_1,1,5,58,materials/images/redA1.png,Alpha,1,1,0.3986937,11,FALSE,10
11034,training_phase_1,1,5,59,materials/images/blueB4.png,Beta,0,1,1.3343545,11,TRUE,11
11034,training_phase_1,1,5,60,materials/images/redA3.png,Alpha,1,1,5.2243896,11,TRUE,12
11034,test_phase,1,1,1,materials/images/yGen3.png,test,1,2,5.9774971,1,TRUE,1
11034,test_phase,1,1,2,materials/images/blueB6.png,Beta,0,2,4.294379,1,TRUE,2
11034,test_phase,1,1,3,materials/images/redA5.png,Alpha,1,2,4.6310973,1,TRUE,3
11034,test_phase,1,1,4,materials/images/yGen4.png,test,0,2,4.4316632,1,TRUE,4
11034,test_phase,1,1,5,materials/images/blueB2.png,Beta,0,2,2.9770616,1,TRUE,5
11034,test_phase,1,1,6,materials/images/yGen5.png,test,0,2,4.110606,1,TRUE,6
11034,test_phase,1,1,7,materials/images/redA2.png,Alpha,1,2,0.4668551,1,TRUE,7
11034,test_phase,1,1,8,materials/images/yGen1.png,test,0,2,1.4844741,1,TRUE,8
11034,test_phase,1,1,9,materials/images/yGen2.png,test,0,2,2.5844722,1,TRUE,9
11034,test_phase,1,1,10,materials/images/blueB3.png,Beta,0,2,5.3684328,1,TRUE,10
11034,test_phase,1,1,11,materials/images/redA3.png,Alpha,1,2,1.0495228,1,TRUE,11
11034,test_phase,1,1,12,materials/images/blueB4.png,Beta,0,2,0.7222055,1,TRUE,12
11034,test_phase,1,1,13,materials/images/blueB1.png,Beta,0,2,1.6083039,1,TRUE,13
11034,test_phase,1,1,14,materials/images/redA1.png,Alpha,1,2,0.2998921,1,TRUE,14
11034,test_phase,1,1,15,materials/images/blueB5.png,Beta,0,2,2.7282454,1,TRUE,15
11034,test_phase,1,1,16,materials/images/redA6.png,Alpha,1,2,2.0421606,1,TRUE,16
11034,test_phase,1,1,17,materials/images/redA4.png,Alpha,1,2,5.5119268,1,TRUE,17
11034,training_phase_2,1,1,1,materials/images/greenD6.png,Delta,1,0,17.2000585,30,FALSE,0
11034,training_phase_2,1,1,2,materials/images/greenD5.png,Delta,3,1,0.901245,30,FALSE,1
11034,training_phase_2,1,1,3,materials/images/redA3.png,Alpha,1,1,6.195519,30,FALSE,2
11034,training_phase_2,1,1,4,materials/images/greenD4.png,Delta,3,1,0.5572131,30,FALSE,3
11034,training_phase_2,1,1,5,materials/images/blueB4.png,Beta,0,1,18.3196699,30,FALSE,4
11034,training_phase_2,1,1,6,materials/images/blackG5.png,Gamma,0,0,4.2746736,30,FALSE,4
11034,training_phase_2,1,1,7,materials/images/greenD2.png,Delta,0,0,17.6216487,30,FALSE,4
11034,training_phase_2,1,1,8,materials/images/greenD3.png,Delta,3,1,1.0210414,30,FALSE,5
11034,training_phase_2,1,1,9,materials/images/blackG3.png,Gamma,1,0,15.964724,30,FALSE,5
11034,training_phase_2,1,1,10,materials/images/blackG2.png,Gamma,2,1,2.4757094,30,FALSE,6
11034,training_phase_2,1,1,11,materials/images/blueB6.png,Beta,2,0,1.1953938,30,FALSE,6
11034,training_phase_2,1,1,12,materials/images/blackG6.png,Gamma,2,1,7.0489592,30,FALSE,7
11034,training_phase_2,1,1,13,materials/images/redA4.png,Alpha,1,1,2.3767656,30,FALSE,8
11034,training_phase_2,1,1,14,materials/images/greenD1.png,Delta,3,1,1.4605663,30,FALSE,9
11034,training_phase_2,1,1,15,materials/images/blueB5.png,Beta,1,0,21.979392,30,FALSE,9
11034,training_phase_2,1,1,16,materials/images/redA5.png,Alpha,1,1,20.7639131,30,FALSE,10
11034,training_phase_2,1,1,17,materials/images/blueB1.png,Beta,3,0,1.2013022,30,FALSE,10
11034,training_phase_2,1,1,18,materials/images/blueB3.png,Beta,3,0,8.6520949,30,FALSE,10
11034,training_phase_2,1,1,19,materials/images/redA2.png,Alpha,1,1,0.1985124,30,FALSE,11
11034,training_phase_2,1,1,20,materials/images/blueB2.png,Beta,2,0,3.1926996,30,FALSE,11
11034,training_phase_2,1,1,21,materials/images/redA6.png,Alpha,0,0,14.2483772,30,FALSE,11
11034,training_phase_2,1,1,22,materials/images/redA1.png,Alpha,1,1,0.1208836,30,FALSE,12
11034,training_phase_2,1,1,23,materials/images/blackG1.png,Gamma,0,0,0.4449543,30,FALSE,12
11034,training_phase_2,1,1,24,materials/images/blackG4.png,Gamma,2,1,6.1331577,30,FALSE,13
11034,training_phase_2,1,2,25,materials/images/redA1.png,Alpha,1,1,0.0667773,30,FALSE,1
11034,training_phase_2,1,2,26,materials/images/blackG6.png,Gamma,0,0,1.2963612,30,FALSE,1
11034,training_phase_2,1,2,27,materials/images/blueB6.png,Beta,2,0,1.2180422,30,FALSE,1
11034,training_phase_2,1,2,28,materials/images/redA2.png,Alpha,1,1,0.3626328,30,FALSE,2
11034,training_phase_2,1,2,29,materials/images/greenD5.png,Delta,3,1,1.1882872,30,FALSE,3
11034,training_phase_2,1,2,30,materials/images/greenD2.png,Delta,3,1,0.1234028,30,FALSE,4
11034,training_phase_2,1,2,31,materials/images/blueB2.png,Beta,3,0,0.1786327,30,FALSE,4
11034,training_phase_2,1,2,32,materials/images/blackG5.png,Gamma,2,1,0.7296711,30,FALSE,5
11034,training_phase_2,1,2,33,materials/images/greenD4.png,Delta,3,1,4.4591529,30,FALSE,6
11034,training_phase_2,1,2,34,materials/images/greenD1.png,Delta,3,1,0.342183,30,FALSE,7
11034,training_phase_2,1,2,35,materials/images/greenD3.png,Delta,3,1,0.173245,30,FALSE,8
11034,training_phase_2,1,2,36,materials/images/greenD6.png,Delta,3,1,0.7417756,30,FALSE,9
11034,training_phase_2,1,2,37,materials/images/blackG3.png,Gamma,0,0,1.2431813,30,FALSE,9
11034,training_phase_2,1,2,38,materials/images/blueB3.png,Beta,0,1,1.0248144,30,FALSE,10
11034,training_phase_2,1,2,39,materials/images/blueB1.png,Beta,0,1,3.0891942,30,FALSE,11
11034,training_phase_2,1,2,40,materials/images/redA6.png,Alpha,2,0,0.7648803,30,FALSE,11
11034,training_phase_2,1,2,41,materials/images/redA5.png,Alpha,1,1,0.0229237,30,FALSE,12
11034,training_phase_2,1,2,42,materials/images/redA3.png,Alpha,1,1,0.1649611,30,FALSE,13
11034,training_phase_2,1,2,43,materials/images/blueB5.png,Beta,2,0,4.5914965,30,FALSE,13
11034,training_phase_2,1,2,44,materials/images/blackG4.png,Gamma,2,1,0.709695,30,FALSE,14
11034,training_phase_2,1,2,45,materials/images/blackG2.png,Gamma,0,0,3.2051457,30,FALSE,14
11034,training_phase_2,1,2,46,materials/images/blueB4.png,Beta,0,1,1.1855358,30,FALSE,15
11034,training_phase_2,1,2,47,materials/images/blackG1.png,Gamma,2,1,6.4794125,30,FALSE,16
11034,training_phase_2,1,2,48,materials/images/redA4.png,Alpha,0,0,3.7485621,30,FALSE,16
11036,training_phase_1,1,1,1,materials/images/redA2.png,Alpha,1,1,0.8791124,11,FALSE,1
11036,training_phase_1,1,1,2,materials/images/blueB5.png,Beta,1,0,1.496034,11,FALSE,1
11036,training_phase_1,1,1,3,materials/images/redA4.png,Alpha,1,1,0.0216744,11,FALSE,2
11036,training_phase_1,1,1,4,materials/images/redA1.png,Alpha,0,0,1.8688585,11,FALSE,2
11036,training_phase_1,1,1,5,materials/images/blueB3.png,Beta,1,0,0.1421321,11,FALSE,2
11036,training_phase_1,1,1,6,materials/images/redA5.png,Alpha,1,1,3.9164263,11,FALSE,3
11036,training_phase_1,1,1,7,materials/images/blueB6.png,Beta,0,1,0.1877281,11,FALSE,4
11036,training_phase_1,1,1,8,materials/images/blueB1.png,Beta,0,1,0.6178704,11,FALSE,5
11036,training_phase_1,1,1,9,materials/images/blueB4.png,Beta,1,0,0.2012032,11,FALSE,5
11036,training_phase_1,1,1,10,materials/images/redA6.png,Alpha,0,0,0.6567501,11,FALSE,5
11036,training_phase_1,1,1,11,materials/images/blueB2.png,Beta,1,0,3.1616612,11,FALSE,5
11036,training_phase_1,1,1,12,materials/images/redA3.png,Alpha,1,1,1.3920479,11,FALSE,6
11036,training_phase_1,1,2,13,materials/images/blueB5.png,Beta,0,1,0.563041,11,FALSE,1
11036,training_phase_1,1,2,14,materials/images/blueB4.png,Beta,0,1,1.386864,11,FALSE,2
11036,training_phase_1,1,2,15,materials/images/redA1.png,Alpha,0,0,0.8203905,11,FALSE,2
11036,training_phase_1,1,2,16,materials/images/redA5.png,Alpha,0,0,2.7113386,11,FALSE,2
11036,training_phase_1,1,2,17,materials/images/blueB3.png,Beta,0,1,0.3180318,11,FALSE,3
11036,training_phase_1,1,2,18,materials/images/redA2.png,Alpha,0,0,1.8534744,11,FALSE,3
11036,training_phase_1,1,2,19,materials/images/redA4.png,Alpha,1,1,0.7326277,11,FALSE,4
11036,training_phase_1,1,2,20,materials/images/blueB1.png,Beta,0,1,1.2744159,11,FALSE,5
11036,training_phase_1,1,2,21,materials/images/redA3.png,Alpha,1,1,3.8078808,11,FALSE,6
11036,training_phase_1,1,2,22,materials/images/blueB2.png,Beta,0,1,0.9210146,11,FALSE,7
11036,training_phase_1,1,2,23,materials/images/blueB6.png,Beta,0,1,0.4569107,11,FALSE,8
11036,training_phase_1,1,2,24,materials/images/redA6.png,Alpha,0,0,1.1796175,11,FALSE,8
11036,training_phase_1,1,3,25,materials/images/blueB1.png,Beta,0,1,2.4337619,11,FALSE,1
11036,training_phase_1,1,3,26,materials/images/redA5.png,Alpha,1,1,0.5646551,11,FALSE,2
11036,training_phase_1,1,3,27,materials/images/blueB4.png,Beta,0,1,0.1271139,11,FALSE,3
11036,training_phase_1,1,3,28,materials/images/blueB3.png,Beta,1,0,0.7270311,11,FALSE,3
11036,training_phase_1,1,3,29,materials/images/redA1.png,Alpha,0,0,0.2451213,11,FALSE,3
11036,training_phase_1,1,3,30,materials/images/blueB5.png,Beta,1,0,4.8976668,11,FALSE,3
11036,training_phase_1,1,3,31,materials/images/redA4.png,Alpha,1,1,0.021977,11,FALSE,4
11036,training_phase_1,1,3,32,materials/images/redA6.png,Alpha,1,1,1.083652,11,FALSE,5
11036,training_phase_1,1,3,33,materials/images/blueB6.png,Beta,0,1,0.474759,11,FALSE,6
11036,training_phase_1,1,3,34,materials/images/redA2.png,Alpha,1,1,0.6522106,11,FALSE,7
11036,training_phase_1,1,3,35,materials/images/redA3.png,Alpha,1,1,0.1991998,11,FALSE,8
11036,training_phase_1,1,3,36,materials/images/blueB2.png,Beta,1,0,0.5396414,11,FALSE,8
11036,training_phase_1,1,4,37,materials/images/blueB4.png,Beta,0,1,1.8775251,11,FALSE,1
11036,training_phase_1,1,4,38,materials/images/blueB2.png,Beta,0,1,0.1891754,11,FALSE,2
11036,training_phase_1,1,4,39,materials/images/redA1.png,Alpha,1,1,4.58408,11,FALSE,3
11036,training_phase_1,1,4,40,materials/images/redA5.png,Alpha,1,1,2.3292116,11,FALSE,4
11036,training_phase_1,1,4,41,materials/images/blueB3.png,Beta,0,1,0.0171535,11,FALSE,5
11036,training_phase_1,1,4,42,materials/images/redA4.png,Alpha,1,1,0.0215218,11,FALSE,6
11036,training_phase_1,1,4,43,materials/images/blueB6.png,Beta,0,1,0.2388797,11,FALSE,7
11036,training_phase_1,1,4,44,materials/images/redA3.png,Alpha,1,1,0.0723534,11,FALSE,8
11036,training_phase_1,1,4,45,materials/images/blueB1.png,Beta,0,1,0.1513301,11,FALSE,9
11036,training_phase_1,1,4,46,materials/images/redA6.png,Alpha,1,1,0.1120968,11,FALSE,10
11036,training_phase_1,1,4,47,materials/images/redA2.png,Alpha,0,0,1.6420575,11,FALSE,10
11036,training_phase_1,1,4,48,materials/images/blueB5.png,Beta,0,1,1.5744173,11,TRUE,11
11036,test_phase,1,1,1,materials/images/blueB4.png,Beta,1,2,5.5315111,1,TRUE,1
11036,test_phase,1,1,2,materials/images/yGen4.png,test,0,2,0.1046203,1,TRUE,2
11036,test_phase,1,1,3,materials/images/redA2.png,Alpha,0,2,1.1408841,1,TRUE,3
11036,test_phase,1,1,4,materials/images/yGen1.png,test,1,2,2.132944,1,TRUE,4
11036,test_phase,1,1,5,materials/images/redA1.png,Alpha,1,2,4.4670912,1,TRUE,5
11036,test_phase,1,1,6,materials/images/blueB3.png,Beta,0,2,0.0218801,1,TRUE,6
11036,test_phase,1,1,7,materials/images/blueB1.png,Beta,1,2,3.0471715,1,TRUE,7
11036,test_phase,1,1,8,materials/images/blueB5.png,Beta,0,2,0.7192924,1,TRUE,8
11036,test_phase,1,1,9,materials/images/blueB2.png,Beta,0,2,0.2225168,1,TRUE,9
