pnum,phase_id,condition,block_data,trial_num,stim,correct_category,response,hit,rt,criterian,met_criterian,num_correct_in_block
11007,training_phase_1,2,1,1,materials/images/redA3.png,Alpha,1,1,1.6903755,11,FALSE,1
11007,training_phase_1,2,1,2,materials/images/blueB2.png,Beta,0,1,0.6078851,11,FALSE,2
11007,training_phase_1,2,1,3,materials/images/blueB4.png,Beta,1,0,1.7981769,11,FALSE,2
11007,training_phase_1,2,1,4,materials/images/blueB1.png,Beta,1,0,0.2648727,11,FALSE,2
11007,training_phase_1,2,1,5,materials/images/blueB6.png,Beta,0,1,0.305936701,11,FALSE,3
11007,training_phase_1,2,1,6,materials/images/redA5.png,Alpha,1,1,0.3449561,11,FALSE,4
11007,training_phase_1,2,1,7,materials/images/redA1.png,Alpha,1,1,0.9305615,11,FALSE,5
11007,training_phase_1,2,1,8,materials/images/redA6.png,Alpha,0,0,0.1221,11,FALSE,5
11007,training_phase_1,2,1,9,materials/images/blueB3.png,Beta,1,0,0.5593301,11,FALSE,5
11007,training_phase_1,2,1,10,materials/images/redA2.png,Alpha,1,1,0.019197,11,FALSE,6
11007,training_phase_1,2,1,11,materials/images/redA4.png,Alpha,1,1,1.341006,11,FALSE,7
11007,training_phase_1,2,1,12,materials/images/blueB5.png,Beta,0,1,0.206974399,11,FALSE,8
11007,training_phase_1,2,2,13,materials/images/redA2.png,Alpha,1,1,0.3731839,11,FALSE,1
11007,training_phase_1,2,2,14,materials/images/redA5.png,Alpha,0,0,0.6750901,11,FALSE,1
11007,training_phase_1,2,2,15,materials/images/blueB1.png,Beta,1,0,0.8170397,11,FALSE,1
11007,training_phase_1,2,2,16,materials/images/blueB4.png,Beta,1,0,0.2555295,11,FALSE,1
11007,training_phase_1,2,2,17,materials/images/redA4.png,Alpha,1,1,0.2293707,11,FALSE,2
11007,training_phase_1,2,2,18,materials/images/blueB5.png,Beta,0,1,0.0873804,11,FALSE,3
11007,training_phase_1,2,2,19,materials/images/redA3.png,Alpha,1,1,0.1605196,11,FALSE,4
11007,training_phase_1,2,2,20,materials/images/blueB2.png,Beta,0,1,2.547796,11,FALSE,5
11007,training_phase_1,2,2,21,materials/images/redA1.png,Alpha,1,1,0.4540049,11,FALSE,6
11007,training_phase_1,2,2,22,materials/images/redA6.png,Alpha,0,0,0.2330012,11,FALSE,6
11007,training_phase_1,2,2,23,materials/images/blueB3.png,Beta,0,1,0.1647313,11,FALSE,7
11007,training_phase_1,2,2,24,materials/images/blueB6.png,Beta,0,1,0.091341499,11,FALSE,8
11007,training_phase_1,2,3,25,materials/images/redA2.png,Alpha,1,1,0.1758649,11,FALSE,1
11007,training_phase_1,2,3,26,materials/images/blueB5.png,Beta,1,0,0.0236855,11,FALSE,1
11007,training_phase_1,2,3,27,materials/images/redA6.png,Alpha,1,1,0.5580215,11,FALSE,2
11007,training_phase_1,2,3,28,materials/images/redA4.png,Alpha,1,1,0.556525299,11,FALSE,3
11007,training_phase_1,2,3,29,materials/images/blueB4.png,Beta,0,1,0.019083399,11,FALSE,4
11007,training_phase_1,2,3,30,materials/images/redA3.png,Alpha,1,1,0.3594927,11,FALSE,5
11007,training_phase_1,2,3,31,materials/images/redA5.png,Alpha,1,1,0.6582367,11,FALSE,6
11007,training_phase_1,2,3,32,materials/images/redA1.png,Alpha,1,1,0.0190306,11,FALSE,7
11007,training_phase_1,2,3,33,materials/images/blueB6.png,Beta,0,1,0.0195616,11,FALSE,8
11007,training_phase_1,2,3,34,materials/images/blueB1.png,Beta,0,1,0.0612195,11,FALSE,9
11007,training_phase_1,2,3,35,materials/images/blueB3.png,Beta,0,1,0.0188437,11,FALSE,10
11007,training_phase_1,2,3,36,materials/images/blueB2.png,Beta,0,1,0.901126401,11,TRUE,11
11007,test_phase,2,1,1,materials/images/yGen2.png,test,0,2,0.7376506,1,TRUE,1
11007,test_phase,2,1,2,materials/images/redA6.png,Alpha,0,2,0.786243999,1,TRUE,2
11007,test_phase,2,1,3,materials/images/redA4.png,Alpha,1,2,0.0240893,1,TRUE,3
11007,test_phase,2,1,4,materials/images/blueB6.png,Beta,0,2,1.1711667,1,TRUE,4
11007,test_phase,2,1,5,materials/images/yGen1.png,test,1,2,0.4940181,1,TRUE,5
11007,test_phase,2,1,6,materials/images/blueB5.png,Beta,0,2,0.2686638,1,TRUE,6
11007,test_phase,2,1,7,materials/images/blueB4.png,Beta,0,2,0.210750001,1,TRUE,7
11007,test_phase,2,1,8,materials/images/redA5.png,Alpha,1,2,0.2270323,1,TRUE,8
11007,test_phase,2,1,9,materials/images/redA1.png,Alpha,1,2,0.0238491,1,TRUE,9
11007,test_phase,2,1,10,materials/images/blueB2.png,Beta,0,2,0.018921101,1,TRUE,10
11007,test_phase,2,1,11,materials/images/redA2.png,Alpha,1,2,0.4415816,1,TRUE,11
11007,test_phase,2,1,12,materials/images/blueB3.png,Beta,0,2,0.0243123,1,TRUE,12
11007,test_phase,2,1,13,materials/images/yGen5.png,test,0,2,0.8413542,1,TRUE,13
11007,test_phase,2,1,14,materials/images/redA3.png,Alpha,1,2,0.4181367,1,TRUE,14
11007,test_phase,2,1,15,materials/images/yGen4.png,test,0,2,0.023581999,1,TRUE,15
11007,test_phase,2,1,16,materials/images/blueB1.png,Beta,0,2,0.220537,1,TRUE,16
11007,test_phase,2,1,17,materials/images/yGen3.png,test,0,2,0.2726694,1,TRUE,17
11007,training_phase_2,2,1,1,materials/images/blueB3.png,Beta,0,1,0.491306299,30,FALSE,1
11007,training_phase_2,2,1,2,materials/images/blueB1.png,Beta,0,1,0.0238711,30,FALSE,2
11007,training_phase_2,2,1,3,materials/images/redA5.png,Alpha,0,0,0.558971999,30,FALSE,2
11007,training_phase_2,2,1,4,materials/images/blackG3.png,Gamma,0,0,0.419641401,30,FALSE,2
11007,training_phase_2,2,1,5,materials/images/redA3.png,Alpha,1,1,0.2836577,30,FALSE,3
11007,training_phase_2,2,1,6,materials/images/blackG1.png,Gamma,2,1,0.254202001,30,FALSE,4
11007,training_phase_2,2,1,7,materials/images/redA1.png,Alpha,1,1,0.018375601,30,FALSE,5
11007,training_phase_2,2,1,8,materials/images/redA2.png,Alpha,1,1,0.0230976,30,FALSE,6
11007,training_phase_2,2,1,9,materials/images/redA6.png,Alpha,2,0,0.1320943,30,FALSE,6
11007,training_phase_2,2,1,10,materials/images/blackG4.png,Gamma,2,1,0.3543574,30,FALSE,7
11007,training_phase_2,2,1,11,materials/images/greenD1.png,Delta,2,0,0.2658456,30,FALSE,7
11007,training_phase_2,2,1,12,materials/images/redA4.png,Alpha,2,0,0.5903512,30,FALSE,7
11007,training_phase_2,2,1,13,materials/images/blueB5.png,Beta,2,0,0.787241,30,FALSE,7
11007,training_phase_2,2,1,14,materials/images/greenD3.png,Delta,0,0,0.508304,30,FALSE,7
11007,training_phase_2,2,1,15,materials/images/blackG5.png,Gamma,2,1,0.5326866,30,FALSE,8
11007,training_phase_2,2,1,16,materials/images/blackG2.png,Gamma,3,0,0.3497431,30,FALSE,8
11007,training_phase_2,2,1,17,materials/images/greenD5.png,Delta,3,1,0.019348199,30,FALSE,9
11007,training_phase_2,2,1,18,materials/images/greenD4.png,Delta,3,1,0.493790899,30,FALSE,10
11007,training_phase_2,2,1,19,materials/images/greenD2.png,Delta,3,1,0.5211175,30,FALSE,11
11007,training_phase_2,2,1,20,materials/images/blackG6.png,Gamma,2,1,1.4313182,30,FALSE,12
11007,training_phase_2,2,1,21,materials/images/greenD6.png,Delta,0,0,0.9253124,30,FALSE,12
11007,training_phase_2,2,1,22,materials/images/blueB4.png,Beta,0,1,0.519899501,30,FALSE,13
11007,training_phase_2,2,1,23,materials/images/blueB6.png,Beta,0,1,1.7275113,30,FALSE,14
11007,training_phase_2,2,1,24,materials/images/blueB2.png,Beta,0,1,0.6499117,30,FALSE,15
11007,training_phase_2,2,2,25,materials/images/blackG4.png,Gamma,2,1,1.177243399,30,FALSE,1
11007,training_phase_2,2,2,26,materials/images/blueB5.png,Beta,2,0,0.1154872,30,FALSE,1
11007,training_phase_2,2,2,27,materials/images/blueB6.png,Beta,0,1,1.3436682,30,FALSE,2
11007,training_phase_2,2,2,28,materials/images/redA6.png,Alpha,1,1,1.218712,30,FALSE,3
11007,training_phase_2,2,2,29,materials/images/greenD3.png,Delta,3,1,1.236937099,30,FALSE,4
11007,training_phase_2,2,2,30,materials/images/redA3.png,Alpha,1,1,0.420505,30,FALSE,5
11007,training_phase_2,2,2,31,materials/images/redA4.png,Alpha,1,1,0.3403774,30,FALSE,6
11007,training_phase_2,2,2,32,materials/images/blueB4.png,Beta,2,0,2.3112366,30,FALSE,6
11007,training_phase_2,2,2,33,materials/images/blackG5.png,Gamma,2,1,0.0360592,30,FALSE,7
11007,training_phase_2,2,2,34,materials/images/blackG1.png,Gamma,3,0,1.3692637,30,FALSE,7
11007,training_phase_2,2,2,35,materials/images/greenD1.png,Delta,3,1,0.239739,30,FALSE,8
11007,training_phase_2,2,2,36,materials/images/greenD5.png,Delta,3,1,0.078872999,30,FALSE,9
11007,training_phase_2,2,2,37,materials/images/redA2.png,Alpha,1,1,0.849465501,30,FALSE,10
11007,training_phase_2,2,2,38,materials/images/greenD4.png,Delta,3,1,0.2523791,30,FALSE,11
11007,training_phase_2,2,2,39,materials/images/blackG3.png,Gamma,0,0,1.0824038,30,FALSE,11
11007,training_phase_2,2,2,40,materials/images/greenD6.png,Delta,3,1,0.239479,30,FALSE,12
11007,training_phase_2,2,2,41,materials/images/blackG2.png,Gamma,2,1,0.386581001,30,FALSE,13
11007,training_phase_2,2,2,42,materials/images/redA5.png,Alpha,0,0,0.843215999,30,FALSE,13
11007,training_phase_2,2,2,43,materials/images/redA1.png,Alpha,1,1,0.1049718,30,FALSE,14
11007,training_phase_2,2,2,44,materials/images/blueB3.png,Beta,3,0,3.7389651,30,FALSE,14
11007,training_phase_2,2,2,45,materials/images/blueB2.png,Beta,0,1,0.216762,30,FALSE,15
11007,training_phase_2,2,2,46,materials/images/blueB1.png,Beta,0,1,0.375746801,30,FALSE,16
11007,training_phase_2,2,2,47,materials/images/blackG6.png,Gamma,2,1,0.3694026,30,FALSE,17
11007,training_phase_2,2,2,48,materials/images/greenD2.png,Delta,0,0,0.8205965,30,FALSE,17
11011,training_phase_1,2,1,1,materials/images/blueB6.png,Beta,1,0,2.6568712,11,FALSE,0
11011,training_phase_1,2,1,2,materials/images/blueB5.png,Beta,0,1,0.6519641,11,FALSE,1
11011,training_phase_1,2,1,3,materials/images/redA5.png,Alpha,0,0,1.1387829,11,FALSE,1
11011,training_phase_1,2,1,4,materials/images/redA3.png,Alpha,1,1,0.0233096,11,FALSE,2
11011,training_phase_1,2,1,5,materials/images/redA6.png,Alpha,0,0,0.017846,11,FALSE,2
11011,training_phase_1,2,1,6,materials/images/blueB1.png,Beta,1,0,0.4536262,11,FALSE,2
11011,training_phase_1,2,1,7,materials/images/redA2.png,Alpha,0,0,0.4153724,11,FALSE,2
11011,training_phase_1,2,1,8,materials/images/blueB3.png,Beta,0,1,1.1614677,11,FALSE,3
11011,training_phase_1,2,1,9,materials/images/redA4.png,Alpha,1,1,1.5171986,11,FALSE,4
11011,training_phase_1,2,1,10,materials/images/redA1.png,Alpha,1,1,0.2215389,11,FALSE,5
11011,training_phase_1,2,1,11,materials/images/blueB4.png,Beta,1,0,2.0995963,11,FALSE,5
11011,training_phase_1,2,1,12,materials/images/blueB2.png,Beta,0,1,0.5878602,11,FALSE,6
11011,training_phase_1,2,2,13,materials/images/redA5.png,Alpha,0,0,2.3434858,11,FALSE,0
11011,training_phase_1,2,2,14,materials/images/blueB4.png,Beta,0,1,0.1690922,11,FALSE,1
11011,training_phase_1,2,2,15,materials/images/blueB6.png,Beta,0,1,0.0418855,11,FALSE,2
11011,training_phase_1,2,2,16,materials/images/blueB2.png,Beta,1,0,0.0223639,11,FALSE,2
11011,training_phase_1,2,2,17,materials/images/redA2.png,Alpha,1,1,0.8146505,11,FALSE,3
11011,training_phase_1,2,2,18,materials/images/redA6.png,Alpha,1,1,0.7633017,11,FALSE,4
11011,training_phase_1,2,2,19,materials/images/redA3.png,Alpha,1,1,0.2621462,11,FALSE,5
11011,training_phase_1,2,2,20,materials/images/redA1.png,Alpha,1,1,0.0392529,11,FALSE,6
11011,training_phase_1,2,2,21,materials/images/blueB3.png,Beta,0,1,0.8079413,11,FALSE,7
11011,training_phase_1,2,2,22,materials/images/blueB5.png,Beta,0,1,0.1501983,11,FALSE,8
11011,training_phase_1,2,2,23,materials/images/blueB1.png,Beta,0,1,3.2612325,11,FALSE,9
11011,training_phase_1,2,2,24,materials/images/redA4.png,Alpha,1,1,0.2115056,11,FALSE,10
11011,training_phase_1,2,3,25,materials/images/blueB2.png,Beta,0,1,0.0185274,11,FALSE,1
11011,training_phase_1,2,3,26,materials/images/redA5.png,Alpha,0,0,0.0367293,11,FALSE,1
11011,training_phase_1,2,3,27,materials/images/blueB6.png,Beta,0,1,0.5795591,11,FALSE,2
11011,training_phase_1,2,3,28,materials/images/redA1.png,Alpha,1,1,0.0181207,11,FALSE,3
11011,training_phase_1,2,3,29,materials/images/redA2.png,Alpha,1,1,0.3806942,11,FALSE,4
11011,training_phase_1,2,3,30,materials/images/blueB4.png,Beta,1,0,0.4590562,11,FALSE,4
11011,training_phase_1,2,3,31,materials/images/redA6.png,Alpha,0,0,0.3797781,11,FALSE,4
11011,training_phase_1,2,3,32,materials/images/redA3.png,Alpha,1,1,6.1391416,11,FALSE,5
11011,training_phase_1,2,3,33,materials/images/blueB5.png,Beta,0,1,1.1475146,11,FALSE,6
11011,training_phase_1,2,3,34,materials/images/redA4.png,Alpha,0,0,1.1472612,11,FALSE,6
11011,training_phase_1,2,3,35,materials/images/blueB1.png,Beta,0,1,0.1490083,11,FALSE,7
11011,training_phase_1,2,3,36,materials/images/blueB3.png,Beta,0,1,0.3477168,11,FALSE,8
11011,training_phase_1,2,4,37,materials/images/redA4.png,Alpha,1,1,0.1542782,11,FALSE,1
11011,training_phase_1,2,4,38,materials/images/redA5.png,Alpha,1,1,0.2589195,11,FALSE,2
11011,training_phase_1,2,4,39,materials/images/blueB1.png,Beta,0,1,3.1339691,11,FALSE,3
11011,training_phase_1,2,4,40,materials/images/blueB4.png,Beta,0,1,0.1559727,11,FALSE,4
11011,training_phase_1,2,4,41,materials/images/blueB2.png,Beta,1,0,1.1798979,11,FALSE,4
11011,training_phase_1,2,4,42,materials/images/redA2.png,Alpha,1,1,0.0187021,11,FALSE,5
11011,training_phase_1,2,4,43,materials/images/blueB6.png,Beta,0,1,0.8387419,11,FALSE,6
11011,training_phase_1,2,4,44,materials/images/blueB5.png,Beta,0,1,0.3522405,11,FALSE,7
11011,training_phase_1,2,4,45,materials/images/redA3.png,Alpha,1,1,0.3729864,11,FALSE,8
11011,training_phase_1,2,4,46,materials/images/blueB3.png,Beta,0,1,0.1989567,11,FALSE,9
11011,training_phase_1,2,4,47,materials/images/redA1.png,Alpha,1,1,0.0227899,11,FALSE,10
11011,training_phase_1,2,4,48,materials/images/redA6.png,Alpha,0,0,0.1645663,11,FALSE,10
11011,training_phase_1,2,5,49,materials/images/redA3.png,Alpha,1,1,0.0218256,11,FALSE,1
11011,training_phase_1,2,5,50,materials/images/redA1.png,Alpha,1,1,0.0179308,11,FALSE,2
11011,training_phase_1,2,5,51,materials/images/blueB6.png,Beta,0,1,0.387546,11,FALSE,3
11011,training_phase_1,2,5,52,materials/images/redA2.png,Alpha,1,1,0.3973948,11,FALSE,4
11011,training_phase_1,2,5,53,materials/images/blueB5.png,Beta,0,1,0.0190588,11,FALSE,5
11011,training_phase_1,2,5,54,materials/images/redA6.png,Alpha,1,1,1.1998446,11,FALSE,6
11011,training_phase_1,2,5,55,materials/images/blueB1.png,Beta,0,1,0.0227726,11,FALSE,7
11011,training_phase_1,2,5,56,materials/images/blueB2.png,Beta,0,1,0.0186634,11,FALSE,8
11011,training_phase_1,2,5,57,materials/images/redA4.png,Alpha,1,1,0.3020683,11,FALSE,9
11011,training_phase_1,2,5,58,materials/images/redA5.png,Alpha,1,1,0.3155996,11,FALSE,10
11011,training_phase_1,2,5,59,materials/images/blueB3.png,Beta,0,1,0.0183415,11,TRUE,11
11011,training_phase_1,2,5,60,materials/images/blueB4.png,Beta,0,1,0.3031675,11,TRUE,12
11011,test_phase,2,1,1,materials/images/redA1.png,Alpha,0,2,0.0275293,1,TRUE,1
11011,test_phase,2,1,2,materials/images/redA2.png,Alpha,1,2,0.4335308,1,TRUE,2
11011,test_phase,2,1,3,materials/images/blueB4.png,Beta,0,2,0.6077399,1,TRUE,3
11011,test_phase,2,1,4,materials/images/redA6.png,Alpha,0,2,0.3947762,1,TRUE,4
11011,test_phase,2,1,5,materials/images/yGen4.png,test,0,2,0.0276636,1,TRUE,5
11011,test_phase,2,1,6,materials/images/yGen5.png,test,0,2,0.0238763,1,TRUE,6
11011,test_phase,2,1,7,materials/images/yGen2.png,test,1,2,0.5516448,1,TRUE,7
11011,test_phase,2,1,8,materials/images/redA4.png,Alpha,1,2,0.1892479,1,TRUE,8
11011,test_phase,2,1,9,materials/images/redA3.png,Alpha,1,2,0.4317491,1,TRUE,9
11011,test_phase,2,1,10,materials/images/yGen1.png,test,1,2,0.1616724,1,TRUE,10
11011,test_phase,2,1,11,materials/images/blueB6.png,Beta,0,2,0.0185272,1,TRUE,11
11011,test_phase,2,1,12,materials/images/yGen3.png,test,0,2,0.0183581,1,TRUE,12
11011,test_phase,2,1,13,materials/images/blueB5.png,Beta,0,2,0.0235169,1,TRUE,13
11011,test_phase,2,1,14,materials/images/redA5.png,Alpha,1,2,0.9057418,1,TRUE,14
11011,test_phase,2,1,15,materials/images/blueB3.png,Beta,0,2,0.0233372,1,TRUE,15
11011,test_phase,2,1,16,materials/images/blueB1.png,Beta,0,2,0.1836031,1,TRUE,16
11011,test_phase,2,1,17,materials/images/blueB2.png,Beta,0,2,0.932439,1,TRUE,17
11011,training_phase_2,2,1,1,materials/images/blueB5.png,Beta,0,1,0.0298533,30,FALSE,1
11011,training_phase_2,2,1,2,materials/images/blueB3.png,Beta,0,1,0.196296,30,FALSE,2
11011,training_phase_2,2,1,3,materials/images/greenD3.png,Delta,0,0,0.3960365,30,FALSE,2
11011,training_phase_2,2,1,4,materials/images/blueB6.png,Beta,0,1,0.1219226,30,FALSE,3
11011,training_phase_2,2,1,5,materials/images/redA6.png,Alpha,1,1,0.0436761,30,FALSE,4
11011,training_phase_2,2,1,6,materials/images/redA2.png,Alpha,1,1,0.325165,30,FALSE,5
11011,training_phase_2,2,1,7,materials/images/blackG3.png,Gamma,1,0,0.0183249,30,FALSE,5
11011,training_phase_2,2,1,8,materials/images/greenD6.png,Delta,3,1,0.4622419,30,FALSE,6
11011,training_phase_2,2,1,9,materials/images/greenD2.png,Delta,3,1,0.499203,30,FALSE,7
11011,training_phase_2,2,1,10,materials/images/greenD5.png,Delta,0,0,0.1175388,30,FALSE,7
11011,training_phase_2,2,1,11,materials/images/blackG6.png,Gamma,0,0,0.018595,30,FALSE,7
11011,training_phase_2,2,1,12,materials/images/redA3.png,Alpha,1,1,0.3254618,30,FALSE,8
11011,training_phase_2,2,1,13,materials/images/redA5.png,Alpha,1,1,3.6190951,30,FALSE,9
11011,training_phase_2,2,1,14,materials/images/blueB1.png,Beta,1,0,0.5090112,30,FALSE,9
11011,training_phase_2,2,1,15,materials/images/blackG5.png,Gamma,0,0,1.7870073,30,FALSE,9
11011,training_phase_2,2,1,16,materials/images/redA4.png,Alpha,1,1,1.0369585,30,FALSE,10
11011,training_phase_2,2,1,17,materials/images/blackG2.png,Gamma,1,0,0.2033485,30,FALSE,10
11011,training_phase_2,2,1,18,materials/images/greenD4.png,Delta,0,0,1.1470279,30,FALSE,10
11011,training_phase_2,2,1,19,materials/images/blueB2.png,Beta,1,0,0.2797217,30,FALSE,10
11011,training_phase_2,2,1,20,materials/images/blueB4.png,Beta,0,1,3.103549,30,FALSE,11
11011,training_phase_2,2,1,21,materials/images/greenD1.png,Delta,3,1,0.0782638,30,FALSE,12
11011,training_phase_2,2,1,22,materials/images/blackG4.png,Gamma,2,1,0.0757032,30,FALSE,13
11011,training_phase_2,2,1,23,materials/images/blackG1.png,Gamma,1,0,0.1061769,30,FALSE,13
11011,training_phase_2,2,1,24,materials/images/redA1.png,Alpha,1,1,0.1649303,30,FALSE,14
11011,training_phase_2,2,2,25,materials/images/redA3.png,Alpha,1,1,0.018085,30,FALSE,1
11011,training_phase_2,2,2,26,materials/images/blackG6.png,Gamma,3,0,1.6862997,30,FALSE,1
11011,training_phase_2,2,2,27,materials/images/redA1.png,Alpha,1,1,0.1117605,30,FALSE,2
11011,training_phase_2,2,2,28,materials/images/blueB3.png,Beta,2,0,0.0921917,30,FALSE,2
11011,training_phase_2,2,2,29,materials/images/blackG4.png,Gamma,0,0,0.3194231,30,FALSE,2
11011,training_phase_2,2,2,30,materials/images/redA2.png,Alpha,1,1,0.4047529,30,FALSE,3
11011,training_phase_2,2,2,31,materials/images/blueB5.png,Beta,3,0,0.3429623,30,FALSE,3
11011,training_phase_2,2,2,32,materials/images/redA6.png,Alpha,3,0,1.1175984,30,FALSE,3
11011,training_phase_2,2,2,33,materials/images/greenD1.png,Delta,2,0,1.0855205,30,FALSE,3
11011,training_phase_2,2,2,34,materials/images/redA4.png,Alpha,0,0,0.799162,30,FALSE,3
11011,training_phase_2,2,2,35,materials/images/blackG5.png,Gamma,0,0,0.088056,30,FALSE,3
11011,training_phase_2,2,2,36,materials/images/blueB1.png,Beta,2,0,0.9388934,30,FALSE,3
11011,training_phase_2,2,2,37,materials/images/greenD2.png,Delta,2,0,3.4585783,30,FALSE,3
11011,training_phase_2,2,2,38,materials/images/redA5.png,Alpha,0,0,4.2285105,30,FALSE,3
11011,training_phase_2,2,2,39,materials/images/blackG3.png,Gamma,1,0,0.0479218,30,FALSE,3
11011,training_phase_2,2,2,40,materials/images/blueB2.png,Beta,0,1,0.4134086,30,FALSE,4
11011,training_phase_2,2,2,41,materials/images/greenD6.png,Delta,0,0,0.0777233,30,FALSE,4
11011,training_phase_2,2,2,42,materials/images/blackG1.png,Gamma,1,0,0.0180515,30,FALSE,4
11011,training_phase_2,2,2,43,materials/images/greenD4.png,Delta,0,0,0.5386954,30,FALSE,4
11011,training_phase_2,2,2,44,materials/images/blueB6.png,Beta,0,1,0.1953394,30,FALSE,5
11011,training_phase_2,2,2,45,materials/images/blueB4.png,Beta,0,1,0.0231249,30,FALSE,6
11011,training_phase_2,2,2,46,materials/images/greenD3.png,Delta,2,0,0.9408365,30,FALSE,6
11011,training_phase_2,2,2,47,materials/images/blackG2.png,Gamma,3,0,1.0162155,30,FALSE,6
11011,training_phase_2,2,2,48,materials/images/greenD5.png,Delta,3,1,0.7697163,30,FALSE,7
11013,training_phase_1,2,1,1,materials/images/blueB1.png,Beta,1,0,1.801713999,11,FALSE,0
11013,training_phase_1,2,1,2,materials/images/redA2.png,Alpha,0,0,0.6578141,11,FALSE,0
11013,training_phase_1,2,1,3,materials/images/blueB5.png,Beta,1,0,0.5202703,11,FALSE,0
11013,training_phase_1,2,1,4,materials/images/blueB4.png,Beta,1,0,4.473804601,11,FALSE,0
11013,training_phase_1,2,1,5,materials/images/blueB2.png,Beta,0,1,4.7620688,11,FALSE,1
11013,training_phase_1,2,1,6,materials/images/redA3.png,Alpha,1,1,0.4148217,11,FALSE,2
11013,training_phase_1,2,1,7,materials/images/redA5.png,Alpha,0,0,5.5724663,11,FALSE,2
11013,training_phase_1,2,1,8,materials/images/redA1.png,Alpha,1,1,2.8260506,11,FALSE,3
11013,training_phase_1,2,1,9,materials/images/redA6.png,Alpha,1,1,4.2125384,11,FALSE,4
11013,training_phase_1,2,1,10,materials/images/blueB6.png,Beta,1,0,2.2926055,11,FALSE,4
11013,training_phase_1,2,1,11,materials/images/redA4.png,Alpha,1,1,8.862341,11,FALSE,5
11013,training_phase_1,2,1,12,materials/images/blueB3.png,Beta,0,1,1.0994651,11,FALSE,6
11013,training_phase_1,2,2,13,materials/images/redA6.png,Alpha,1,1,5.0853821,11,FALSE,1
11013,training_phase_1,2,2,14,materials/images/redA3.png,Alpha,1,1,3.8322555,11,FALSE,2
11013,training_phase_1,2,2,15,materials/images/blueB4.png,Beta,1,0,0.312121,11,FALSE,2
11013,training_phase_1,2,2,16,materials/images/blueB2.png,Beta,0,1,0.946358,11,FALSE,3
11013,training_phase_1,2,2,17,materials/images/redA1.png,Alpha,1,1,0.2618121,11,FALSE,4
11013,training_phase_1,2,2,18,materials/images/blueB3.png,Beta,0,1,1.7522124,11,FALSE,5
11013,training_phase_1,2,2,19,materials/images/redA2.png,Alpha,1,1,0.8290635,11,FALSE,6
11013,training_phase_1,2,2,20,materials/images/blueB6.png,Beta,1,0,3.3949253,11,FALSE,6
11013,training_phase_1,2,2,21,materials/images/redA4.png,Alpha,1,1,1.790487199,11,FALSE,7
11013,training_phase_1,2,2,22,materials/images/blueB1.png,Beta,0,1,0.326901,11,FALSE,8
11013,training_phase_1,2,2,23,materials/images/blueB5.png,Beta,0,1,2.6239222,11,FALSE,9
11013,training_phase_1,2,2,24,materials/images/redA5.png,Alpha,1,1,1.4011781,11,FALSE,10
11013,training_phase_1,2,3,25,materials/images/redA3.png,Alpha,1,1,0.705548001,11,FALSE,1
11013,training_phase_1,2,3,26,materials/images/blueB6.png,Beta,1,0,2.9173498,11,FALSE,1
11013,training_phase_1,2,3,27,materials/images/blueB4.png,Beta,0,1,0.313147199,11,FALSE,2
11013,training_phase_1,2,3,28,materials/images/redA4.png,Alpha,1,1,2.1668736,11,FALSE,3
11013,training_phase_1,2,3,29,materials/images/blueB1.png,Beta,1,0,0.3645672,11,FALSE,3
11013,training_phase_1,2,3,30,materials/images/blueB2.png,Beta,0,1,1.6289297,11,FALSE,4
11013,training_phase_1,2,3,31,materials/images/redA6.png,Alpha,1,1,4.2182962,11,FALSE,5
11013,training_phase_1,2,3,32,materials/images/redA5.png,Alpha,1,1,1.9861222,11,FALSE,6
11013,training_phase_1,2,3,33,materials/images/blueB5.png,Beta,0,1,4.5949468,11,FALSE,7
11013,training_phase_1,2,3,34,materials/images/redA2.png,Alpha,1,1,0.866793999,11,FALSE,8
11013,training_phase_1,2,3,35,materials/images/blueB3.png,Beta,0,1,1.1357108,11,FALSE,9
11013,training_phase_1,2,3,36,materials/images/redA1.png,Alpha,1,1,2.46454,11,FALSE,10
11013,training_phase_1,2,4,37,materials/images/redA1.png,Alpha,1,1,0.0228269,11,FALSE,1
11013,training_phase_1,2,4,38,materials/images/redA3.png,Alpha,1,1,0.7059076,11,FALSE,2
11013,training_phase_1,2,4,39,materials/images/blueB2.png,Beta,0,1,0.498113099,11,FALSE,3
11013,training_phase_1,2,4,40,materials/images/blueB5.png,Beta,0,1,0.126113201,11,FALSE,4
11013,training_phase_1,2,4,41,materials/images/blueB1.png,Beta,0,1,0.7090308,11,FALSE,5
11013,training_phase_1,2,4,42,materials/images/blueB3.png,Beta,0,1,0.8131188,11,FALSE,6
11013,training_phase_1,2,4,43,materials/images/redA2.png,Alpha,1,1,0.03479,11,FALSE,7
11013,training_phase_1,2,4,44,materials/images/redA4.png,Alpha,1,1,0.8462355,11,FALSE,8
11013,training_phase_1,2,4,45,materials/images/redA5.png,Alpha,1,1,0.0589183,11,FALSE,9
11013,training_phase_1,2,4,46,materials/images/redA6.png,Alpha,1,1,0.7585414,11,FALSE,10
11013,training_phase_1,2,4,47,materials/images/blueB4.png,Beta,0,1,3.710933301,11,TRUE,11
11013,training_phase_1,2,4,48,materials/images/blueB6.png,Beta,0,1,0.1987212,11,TRUE,12
11013,test_phase,2,1,1,materials/images/yGen4.png,test,0,2,1.1621696,1,TRUE,1
11013,test_phase,2,1,2,materials/images/yGen5.png,test,0,2,4.2537686,1,TRUE,2
11013,test_phase,2,1,3,materials/images/blueB1.png,Beta,0,2,2.4146333,1,TRUE,3
11013,test_phase,2,1,4,materials/images/redA2.png,Alpha,1,2,0.512343899,1,TRUE,4
11013,test_phase,2,1,5,materials/images/blueB4.png,Beta,0,2,6.4594699,1,TRUE,5
11013,test_phase,2,1,6,materials/images/redA1.png,Alpha,1,2,1.7129644,1,TRUE,6
11013,test_phase,2,1,7,materials/images/redA5.png,Alpha,1,2,2.3017314,1,TRUE,7
11013,test_phase,2,1,8,materials/images/redA3.png,Alpha,1,2,0.2697699,1,TRUE,8
11013,test_phase,2,1,9,materials/images/blueB2.png,Beta,0,2,0.676946701,1,TRUE,9
11013,test_phase,2,1,10,materials/images/blueB5.png,Beta,0,2,1.3499787,1,TRUE,10
11013,test_phase,2,1,11,materials/images/redA4.png,Alpha,1,2,1.2225217,1,TRUE,11
11013,test_phase,2,1,12,materials/images/redA6.png,Alpha,1,2,2.1155561,1,TRUE,12
11013,test_phase,2,1,13,materials/images/yGen3.png,test,0,2,2.811443199,1,TRUE,13
11013,test_phase,2,1,14,materials/images/blueB6.png,Beta,0,2,0.5022809,1,TRUE,14
11013,test_phase,2,1,15,materials/images/blueB3.png,Beta,0,2,1.043948701,1,TRUE,15
11013,test_phase,2,1,16,materials/images/yGen1.png,test,1,2,0.523011601,1,TRUE,16
11013,test_phase,2,1,17,materials/images/yGen2.png,test,1,2,1.3363039,1,TRUE,17
11013,training_phase_2,2,1,1,materials/images/redA5.png,Alpha,0,0,12.3232753,30,FALSE,0
11013,training_phase_2,2,1,2,materials/images/greenD5.png,Delta,0,0,0.0887407,30,FALSE,0
11013,training_phase_2,2,1,3,materials/images/blueB6.png,Beta,2,0,0.276603901,30,FALSE,0
11013,training_phase_2,2,1,4,materials/images/redA1.png,Alpha,1,1,0.9464009,30,FALSE,1
11013,training_phase_2,2,1,5,materials/images/greenD4.png,Delta,3,1,2.008661199,30,FALSE,2
11013,training_phase_2,2,1,6,materials/images/blackG3.png,Gamma,2,1,0.365775,30,FALSE,3
11013,training_phase_2,2,1,7,materials/images/blueB4.png,Beta,1,0,2.0422585,30,FALSE,3
11013,training_phase_2,2,1,8,materials/images/blackG2.png,Gamma,2,1,0.9869503,30,FALSE,4
11013,training_phase_2,2,1,9,materials/images/redA6.png,Alpha,0,0,0.3880555,30,FALSE,4
11013,training_phase_2,2,1,10,materials/images/redA4.png,Alpha,1,1,0.3012298,30,FALSE,5
11013,training_phase_2,2,1,11,materials/images/blackG5.png,Gamma,1,0,1.0217773,30,FALSE,5
11013,training_phase_2,2,1,12,materials/images/greenD2.png,Delta,2,0,2.7835843,30,FALSE,5
11013,training_phase_2,2,1,13,materials/images/greenD6.png,Delta,3,1,3.2960203,30,FALSE,6
11013,training_phase_2,2,1,14,materials/images/redA2.png,Alpha,1,1,0.6419275,30,FALSE,7
11013,training_phase_2,2,1,15,materials/images/blueB5.png,Beta,0,1,2.4650724,30,FALSE,8
11013,training_phase_2,2,1,16,materials/images/blueB2.png,Beta,3,0,5.0961855,30,FALSE,8
11013,training_phase_2,2,1,17,materials/images/blackG6.png,Gamma,3,0,2.3600017,30,FALSE,8
11013,training_phase_2,2,1,18,materials/images/blackG4.png,Gamma,2,1,5.64727,30,FALSE,9
11013,training_phase_2,2,1,19,materials/images/greenD1.png,Delta,3,1,1.137973499,30,FALSE,10
11013,training_phase_2,2,1,20,materials/images/greenD3.png,Delta,3,1,2.175840801,30,FALSE,11
11013,training_phase_2,2,1,21,materials/images/blackG1.png,Gamma,0,0,1.060670501,30,FALSE,11
11013,training_phase_2,2,1,22,materials/images/blueB3.png,Beta,2,0,3.8421901,30,FALSE,11
11013,training_phase_2,2,1,23,materials/images/blueB1.png,Beta,3,0,1.6712219,30,FALSE,11
11013,training_phase_2,2,1,24,materials/images/redA3.png,Alpha,1,1,2.7180938,30,FALSE,12
11013,training_phase_2,2,2,25,materials/images/greenD6.png,Delta,3,1,5.3436465,30,FALSE,1
11013,training_phase_2,2,2,26,materials/images/redA6.png,Alpha,1,1,18.7039283,30,FALSE,2
11013,training_phase_2,2,2,27,materials/images/redA4.png,Alpha,1,1,4.1553492,30,FALSE,3
11013,training_phase_2,2,2,28,materials/images/blackG5.png,Gamma,2,1,1.9944345,30,FALSE,4
11013,training_phase_2,2,2,29,materials/images/greenD1.png,Delta,0,0,8.5124912,30,FALSE,4
11013,training_phase_2,2,2,30,materials/images/blueB5.png,Beta,0,1,2.757296501,30,FALSE,5
11013,training_phase_2,2,2,31,materials/images/redA1.png,Alpha,1,1,4.4573835,30,FALSE,6
11013,training_phase_2,2,2,32,materials/images/blueB6.png,Beta,2,0,5.3564978,30,FALSE,6
11013,training_phase_2,2,2,33,materials/images/greenD4.png,Delta,0,0,6.4725856,30,FALSE,6
11013,training_phase_2,2,2,34,materials/images/blackG2.png,Gamma,1,0,1.4640283,30,FALSE,6
11013,training_phase_2,2,2,35,materials/images/blackG6.png,Gamma,0,0,22.1686066,30,FALSE,6
11013,training_phase_2,2,2,36,materials/images/blueB3.png,Beta,0,1,22.3333239,30,FALSE,7
11013,training_phase_2,2,2,37,materials/images/blackG4.png,Gamma,2,1,4.2243763,30,FALSE,8
11013,training_phase_2,2,2,38,materials/images/blueB4.png,Beta,0,1,5.7066405,30,FALSE,9
11013,training_phase_2,2,2,39,materials/images/redA2.png,Alpha,3,0,3.577288901,30,FALSE,9
11013,training_phase_2,2,2,40,materials/images/blackG1.png,Gamma,1,0,2.1477417,30,FALSE,9
11013,training_phase_2,2,2,41,materials/images/greenD3.png,Delta,2,0,6.523652799,30,FALSE,9
11013,training_phase_2,2,2,42,materials/images/greenD2.png,Delta,2,0,21.5590452,30,FALSE,9
11013,training_phase_2,2,2,43,materials/images/greenD5.png,Delta,2,0,3.5777732,30,FALSE,9
11013,training_phase_2,2,2,44,materials/images/redA5.png,Alpha,0,0,0.1071336,30,FALSE,9
11013,training_phase_2,2,2,45,materials/images/redA3.png,Alpha,1,1,9.468913799,30,FALSE,10
11013,training_phase_2,2,2,46,materials/images/blackG3.png,Gamma,1,0,2.0094817,30,FALSE,10
11013,training_phase_2,2,2,47,materials/images/blueB2.png,Beta,1,0,2.040457901,30,FALSE,10
11013,training_phase_2,2,2,48,materials/images/blueB1.png,Beta,0,1,0.480914299,30,FALSE,11
11015,training_phase_1,2,1,1,materials/images/blueB1.png,Beta,0,1,8.0707742,11,FALSE,1
11015,training_phase_1,2,1,2,materials/images/blueB6.png,Beta,1,0,1.7655594,11,FALSE,1
11015,training_phase_1,2,1,3,materials/images/blueB5.png,Beta,0,1,0.3967389,11,FALSE,2
11015,training_phase_1,2,1,4,materials/images/blueB4.png,Beta,0,1,0.0923892,11,FALSE,3
11015,training_phase_1,2,1,5,materials/images/redA2.png,Alpha,0,0,0.020558001,11,FALSE,3
11015,training_phase_1,2,1,6,materials/images/redA3.png,Alpha,1,1,0.3738868,11,FALSE,4
11015,training_phase_1,2,1,7,materials/images/blueB3.png,Beta,1,0,0.4461446,11,FALSE,4
11015,training_phase_1,2,1,8,materials/images/redA5.png,Alpha,1,1,4.1884108,11,FALSE,5
11015,training_phase_1,2,1,9,materials/images/blueB2.png,Beta,0,1,1.879259,11,FALSE,6
11015,training_phase_1,2,1,10,materials/images/redA6.png,Alpha,0,0,2.0034645,11,FALSE,6
11015,training_phase_1,2,1,11,materials/images/redA4.png,Alpha,1,1,0.5525822,11,FALSE,7
11015,training_phase_1,2,1,12,materials/images/redA1.png,Alpha,1,1,0.2359775,11,FALSE,8
11015,training_phase_1,2,2,13,materials/images/redA4.png,Alpha,1,1,0.903597999,11,FALSE,1
11015,training_phase_1,2,2,14,materials/images/blueB1.png,Beta,0,1,0.0272958,11,FALSE,2
11015,training_phase_1,2,2,15,materials/images/redA5.png,Alpha,1,1,0.5341419,11,FALSE,3
11015,training_phase_1,2,2,16,materials/images/blueB3.png,Beta,0,1,1.4794543,11,FALSE,4
11015,training_phase_1,2,2,17,materials/images/redA1.png,Alpha,1,1,0.6920107,11,FALSE,5
11015,training_phase_1,2,2,18,materials/images/blueB5.png,Beta,1,0,0.7081058,11,FALSE,5
11015,training_phase_1,2,2,19,materials/images/blueB2.png,Beta,0,1,0.4248405,11,FALSE,6
11015,training_phase_1,2,2,20,materials/images/redA6.png,Alpha,1,1,1.830031401,11,FALSE,7
11015,training_phase_1,2,2,21,materials/images/redA3.png,Alpha,1,1,3.3180474,11,FALSE,8
11015,training_phase_1,2,2,22,materials/images/blueB6.png,Beta,0,1,2.2431305,11,FALSE,9
11015,training_phase_1,2,2,23,materials/images/blueB4.png,Beta,1,0,1.0319965,11,FALSE,9
11015,training_phase_1,2,2,24,materials/images/redA2.png,Alpha,1,1,0.85479,11,FALSE,10
11015,training_phase_1,2,3,25,materials/images/blueB3.png,Beta,0,1,0.2966636,11,FALSE,1
11015,training_phase_1,2,3,26,materials/images/redA2.png,Alpha,1,1,2.4719801,11,FALSE,2
11015,training_phase_1,2,3,27,materials/images/redA6.png,Alpha,1,1,1.709094,11,FALSE,3
11015,training_phase_1,2,3,28,materials/images/redA3.png,Alpha,1,1,1.7085398,11,FALSE,4
11015,training_phase_1,2,3,29,materials/images/redA4.png,Alpha,1,1,1.9344445,11,FALSE,5
11015,training_phase_1,2,3,30,materials/images/blueB1.png,Beta,0,1,0.0252143,11,FALSE,6
11015,training_phase_1,2,3,31,materials/images/redA5.png,Alpha,0,0,1.6385175,11,FALSE,6
11015,training_phase_1,2,3,32,materials/images/redA1.png,Alpha,1,1,0.6986464,11,FALSE,7
11015,training_phase_1,2,3,33,materials/images/blueB6.png,Beta,0,1,1.3211608,11,FALSE,8
11015,training_phase_1,2,3,34,materials/images/blueB2.png,Beta,0,1,0.5613429,11,FALSE,9
11015,training_phase_1,2,3,35,materials/images/blueB4.png,Beta,0,1,1.618415399,11,FALSE,10
11015,training_phase_1,2,3,36,materials/images/blueB5.png,Beta,0,1,0.8157251,11,TRUE,11
11015,test_phase,2,1,1,materials/images/blueB4.png,Beta,0,2,22.3714833,1,TRUE,1
11015,test_phase,2,1,2,materials/images/redA6.png,Alpha,1,2,1.611843999,1,TRUE,2
11015,test_phase,2,1,3,materials/images/redA3.png,Alpha,1,2,1.006604101,1,TRUE,3
11015,test_phase,2,1,4,materials/images/blueB3.png,Beta,0,2,0.0747862,1,TRUE,4
11015,test_phase,2,1,5,materials/images/blueB5.png,Beta,0,2,0.6383366,1,TRUE,5
11015,test_phase,2,1,6,materials/images/yGen2.png,test,1,2,0.1912367,1,TRUE,6
11015,test_phase,2,1,7,materials/images/redA5.png,Alpha,1,2,0.5134766,1,TRUE,7
11015,test_phase,2,1,8,materials/images/redA1.png,Alpha,1,2,0.2283533,1,TRUE,8
11015,test_phase,2,1,9,materials/images/blueB6.png,Beta,0,2,0.1657273,1,TRUE,9
11015,test_phase,2,1,10,materials/images/yGen1.png,test,1,2,0.8786777,1,TRUE,10
11015,test_phase,2,1,11,materials/images/yGen4.png,test,0,2,0.0195696,1,TRUE,11
11015,test_phase,2,1,12,materials/images/yGen3.png,test,0,2,1.5093196,1,TRUE,12
11015,test_phase,2,1,13,materials/images/yGen5.png,test,0,2,1.2310599,1,TRUE,13
11015,test_phase,2,1,14,materials/images/blueB2.png,Beta,0,2,1.5884568,1,TRUE,14
11015,test_phase,2,1,15,materials/images/redA2.png,Alpha,1,2,1.4277003,1,TRUE,15
11015,test_phase,2,1,16,materials/images/blueB1.png,Beta,0,2,0.137393001,1,TRUE,16
11015,test_phase,2,1,17,materials/images/redA4.png,Alpha,1,2,1.3287661,1,TRUE,17
11015,training_phase_2,2,1,1,materials/images/blueB5.png,Beta,0,1,2.5300174,30,FALSE,1
11015,training_phase_2,2,1,2,materials/images/greenD6.png,Delta,0,0,0.847236699,30,FALSE,1
11015,training_phase_2,2,1,3,materials/images/greenD3.png,Delta,3,1,1.4913811,30,FALSE,2
11015,training_phase_2,2,1,4,materials/images/greenD2.png,Delta,3,1,0.507976101,30,FALSE,3
11015,training_phase_2,2,1,5,materials/images/redA5.png,Alpha,2,0,1.645505,30,FALSE,3
11015,training_phase_2,2,1,6,materials/images/greenD4.png,Delta,3,1,1.2312057,30,FALSE,4
11015,training_phase_2,2,1,7,materials/images/blackG6.png,Gamma,2,1,1.0741049,30,FALSE,5
11015,training_phase_2,2,1,8,materials/images/blueB4.png,Beta,1,0,1.554432901,30,FALSE,5
11015,training_phase_2,2,1,9,materials/images/redA6.png,Alpha,0,0,1.1367002,30,FALSE,5
11015,training_phase_2,2,1,10,materials/images/blackG1.png,Gamma,1,0,0.0227726,30,FALSE,5
11015,training_phase_2,2,1,11,materials/images/blackG2.png,Gamma,3,0,44.8600357,30,FALSE,5
11015,training_phase_2,2,1,12,materials/images/blueB3.png,Beta,0,1,3.8402749,30,FALSE,6
11015,training_phase_2,2,1,13,materials/images/blackG4.png,Gamma,2,1,0.7432112,30,FALSE,7
11015,training_phase_2,2,1,14,materials/images/blackG3.png,Gamma,1,0,1.8298693,30,FALSE,7
11015,training_phase_2,2,1,15,materials/images/blueB1.png,Beta,3,0,0.5617839,30,FALSE,7
11015,training_phase_2,2,1,16,materials/images/redA4.png,Alpha,1,1,0.9315401,30,FALSE,8
11015,training_phase_2,2,1,17,materials/images/redA2.png,Alpha,2,0,0.8929748,30,FALSE,8
11015,training_phase_2,2,1,18,materials/images/greenD1.png,Delta,0,0,1.035419,30,FALSE,8
11015,training_phase_2,2,1,19,materials/images/blueB2.png,Beta,3,0,23.8400789,30,FALSE,8
11015,training_phase_2,2,1,20,materials/images/blueB6.png,Beta,2,0,0.1700747,30,FALSE,8
11015,training_phase_2,2,1,21,materials/images/redA3.png,Alpha,1,1,1.221473901,30,FALSE,9
11015,training_phase_2,2,1,22,materials/images/greenD5.png,Delta,0,0,1.713719,30,FALSE,9
11015,training_phase_2,2,1,23,materials/images/redA1.png,Alpha,2,0,0.5798284,30,FALSE,9
11015,training_phase_2,2,1,24,materials/images/blackG5.png,Gamma,2,1,0.500839,30,FALSE,10
11015,training_phase_2,2,2,25,materials/images/blueB3.png,Beta,0,1,4.674786501,30,FALSE,1
11015,training_phase_2,2,2,26,materials/images/blackG1.png,Gamma,3,0,1.043265199,30,FALSE,1
11015,training_phase_2,2,2,27,materials/images/blackG3.png,Gamma,0,0,4.2941089,30,FALSE,1
11015,training_phase_2,2,2,28,materials/images/redA6.png,Alpha,2,0,0.023293,30,FALSE,1
11015,training_phase_2,2,2,29,materials/images/redA5.png,Alpha,1,1,1.2055127,30,FALSE,2
11015,training_phase_2,2,2,30,materials/images/blueB2.png,Beta,2,0,0.8827671,30,FALSE,2
11015,training_phase_2,2,2,31,materials/images/blackG4.png,Gamma,2,1,0.6318917,30,FALSE,3
11015,training_phase_2,2,2,32,materials/images/greenD2.png,Delta,3,1,2.2608483,30,FALSE,4
11015,training_phase_2,2,2,33,materials/images/redA4.png,Alpha,0,0,3.0535611,30,FALSE,4
11015,training_phase_2,2,2,34,materials/images/blueB5.png,Beta,2,0,0.2428166,30,FALSE,4
11015,training_phase_2,2,2,35,materials/images/redA1.png,Alpha,1,1,0.4695591,30,FALSE,5
11015,training_phase_2,2,2,36,materials/images/blueB6.png,Beta,0,1,1.937225601,30,FALSE,6
11015,training_phase_2,2,2,37,materials/images/blueB4.png,Beta,0,1,4.097663,30,FALSE,7
11015,training_phase_2,2,2,38,materials/images/greenD1.png,Delta,2,0,2.8259911,30,FALSE,7
11015,training_phase_2,2,2,39,materials/images/greenD6.png,Delta,2,0,1.4801504,30,FALSE,7
11015,training_phase_2,2,2,40,materials/images/blackG6.png,Gamma,2,1,0.1061533,30,FALSE,8
11015,training_phase_2,2,2,41,materials/images/greenD4.png,Delta,3,1,0.374591,30,FALSE,9
11015,training_phase_2,2,2,42,materials/images/redA3.png,Alpha,0,0,3.3218292,30,FALSE,9
11015,training_phase_2,2,2,43,materials/images/greenD5.png,Delta,3,1,0.061507801,30,FALSE,10
11015,training_phase_2,2,2,44,materials/images/greenD3.png,Delta,3,1,0.1395707,30,FALSE,11
11015,training_phase_2,2,2,45,materials/images/redA2.png,Alpha,1,1,0.4005135,30,FALSE,12
11015,training_phase_2,2,2,46,materials/images/blueB1.png,Beta,3,0,1.8676603,30,FALSE,12
11015,training_phase_2,2,2,47,materials/images/blackG2.png,Gamma,0,0,0.281647,30,FALSE,12
11015,training_phase_2,2,2,48,materials/images/blackG5.png,Gamma,2,1,1.0084314,30,FALSE,13
11019,training_phase_1,2,1,1,materials/images/blueB2.png,Beta,0,1,2.5683625,11,FALSE,1
11019,training_phase_1,2,1,2,materials/images/redA2.png,Alpha,0,0,0.895443,11,FALSE,1
11019,training_phase_1,2,1,3,materials/images/blueB5.png,Beta,1,0,1.1022627,11,FALSE,1
11019,training_phase_1,2,1,4,materials/images/redA1.png,Alpha,1,1,0.9052142,11,FALSE,2
11019,training_phase_1,2,1,5,materials/images/redA6.png,Alpha,0,0,1.3845536,11,FALSE,2
11019,training_phase_1,2,1,6,materials/images/redA3.png,Alpha,0,0,0.5344426,11,FALSE,2
11019,training_phase_1,2,1,7,materials/images/blueB4.png,Beta,0,1,1.2080134,11,FALSE,3
11019,training_phase_1,2,1,8,materials/images/blueB1.png,Beta,1,0,0.5724429,11,FALSE,3
11019,training_phase_1,2,1,9,materials/images/redA5.png,Alpha,1,1,3.4334315,11,FALSE,4
11019,training_phase_1,2,1,10,materials/images/blueB3.png,Beta,0,1,1.1422505,11,FALSE,5
11019,training_phase_1,2,1,11,materials/images/redA4.png,Alpha,1,1,0.4489387,11,FALSE,6
11019,training_phase_1,2,1,12,materials/images/blueB6.png,Beta,1,0,1.9635634,11,FALSE,6
11019,training_phase_1,2,2,13,materials/images/redA1.png,Alpha,1,1,0.8308738,11,FALSE,1
11019,training_phase_1,2,2,14,materials/images/blueB5.png,Beta,0,1,0.7953375,11,FALSE,2
11019,training_phase_1,2,2,15,materials/images/blueB2.png,Beta,1,0,0.5292083,11,FALSE,2
11019,training_phase_1,2,2,16,materials/images/redA3.png,Alpha,1,1,0.7701074,11,FALSE,3
11019,training_phase_1,2,2,17,materials/images/redA6.png,Alpha,0,0,0.949343,11,FALSE,3
11019,training_phase_1,2,2,18,materials/images/redA2.png,Alpha,1,1,0.2981304,11,FALSE,4
11019,training_phase_1,2,2,19,materials/images/blueB6.png,Beta,0,1,2.2287692,11,FALSE,5
11019,training_phase_1,2,2,20,materials/images/blueB1.png,Beta,0,1,4.6719156,11,FALSE,6
11019,training_phase_1,2,2,21,materials/images/redA4.png,Alpha,1,1,2.3873363,11,FALSE,7
11019,training_phase_1,2,2,22,materials/images/blueB3.png,Beta,0,1,0.919909,11,FALSE,8
11019,training_phase_1,2,2,23,materials/images/blueB4.png,Beta,0,1,1.9266786,11,FALSE,9
11019,training_phase_1,2,2,24,materials/images/redA5.png,Alpha,1,1,2.108467,11,FALSE,10
11019,training_phase_1,2,3,25,materials/images/blueB4.png,Beta,0,1,0.7174356,11,FALSE,1
11019,training_phase_1,2,3,26,materials/images/redA3.png,Alpha,1,1,0.4223697,11,FALSE,2
11019,training_phase_1,2,3,27,materials/images/redA1.png,Alpha,1,1,1.0727947,11,FALSE,3
11019,training_phase_1,2,3,28,materials/images/redA5.png,Alpha,0,0,0.1413485,11,FALSE,3
11019,training_phase_1,2,3,29,materials/images/redA6.png,Alpha,1,1,0.0235088,11,FALSE,4
11019,training_phase_1,2,3,30,materials/images/redA2.png,Alpha,1,1,0.7431626,11,FALSE,5
11019,training_phase_1,2,3,31,materials/images/blueB3.png,Beta,0,1,1.5189692,11,FALSE,6
11019,training_phase_1,2,3,32,materials/images/blueB1.png,Beta,0,1,0.4355309,11,FALSE,7
11019,training_phase_1,2,3,33,materials/images/redA4.png,Alpha,0,0,1.7694669,11,FALSE,7
11019,training_phase_1,2,3,34,materials/images/blueB2.png,Beta,0,1,1.0762629,11,FALSE,8
11019,training_phase_1,2,3,35,materials/images/blueB5.png,Beta,0,1,0.7153852,11,FALSE,9
11019,training_phase_1,2,3,36,materials/images/blueB6.png,Beta,0,1,0.0289066,11,FALSE,10
11019,training_phase_1,2,4,37,materials/images/blueB3.png,Beta,0,1,1.0818607,11,FALSE,1
11019,training_phase_1,2,4,38,materials/images/blueB2.png,Beta,0,1,0.6387312,11,FALSE,2
11019,training_phase_1,2,4,39,materials/images/redA4.png,Alpha,1,1,1.0790076,11,FALSE,3
11019,training_phase_1,2,4,40,materials/images/redA6.png,Alpha,1,1,0.9448983,11,FALSE,4
11019,training_phase_1,2,4,41,materials/images/blueB6.png,Beta,0,1,0.1549205,11,FALSE,5
11019,training_phase_1,2,4,42,materials/images/redA3.png,Alpha,1,1,4.9976266,11,FALSE,6
11019,training_phase_1,2,4,43,materials/images/blueB4.png,Beta,0,1,0.7178782,11,FALSE,7
11019,training_phase_1,2,4,44,materials/images/redA5.png,Alpha,0,0,1.7798434,11,FALSE,7
11019,training_phase_1,2,4,45,materials/images/blueB5.png,Beta,0,1,2.2961719,11,FALSE,8
11019,training_phase_1,2,4,46,materials/images/redA1.png,Alpha,1,1,0.3523799,11,FALSE,9
11019,training_phase_1,2,4,47,materials/images/blueB1.png,Beta,0,1,0.0434039,11,FALSE,10
11019,training_phase_1,2,4,48,materials/images/redA2.png,Alpha,1,1,1.8432493,11,TRUE,11
11019,test_phase,2,1,1,materials/images/yGen4.png,test,0,2,3.0268137,1,TRUE,1
11019,test_phase,2,1,2,materials/images/blueB2.png,Beta,0,2,1.7094425,1,TRUE,2
11019,test_phase,2,1,3,materials/images/redA4.png,Alpha,1,2,0.225107,1,TRUE,3
11019,test_phase,2,1,4,materials/images/yGen1.png,test,1,2,0.2415819,1,TRUE,4
11019,test_phase,2,1,5,materials/images/redA1.png,Alpha,1,2,0.2530363,1,TRUE,5
11019,test_phase,2,1,6,materials/images/blueB6.png,Beta,0,2,0.2489641,1,TRUE,6
11019,test_phase,2,1,7,materials/images/blueB1.png,Beta,0,2,0.0805172,1,TRUE,7
11019,test_phase,2,1,8,materials/images/yGen5.png,test,0,2,2.7385903,1,TRUE,8
11019,test_phase,2,1,9,materials/images/redA2.png,Alpha,1,2,0.3037403,1,TRUE,9
11019,test_phase,2,1,10,materials/images/blueB3.png,Beta,0,2,1.6714018,1,TRUE,10
11019,test_phase,2,1,11,materials/images/blueB4.png,Beta,0,2,0.9156127,1,TRUE,11
11019,test_phase,2,1,12,materials/images/yGen3.png,test,0,2,1.238351,1,TRUE,12
11019,test_phase,2,1,13,materials/images/redA5.png,Alpha,1,2,0.2422046,1,TRUE,13
11019,test_phase,2,1,14,materials/images/redA3.png,Alpha,1,2,0.0577814,1,TRUE,14
11019,test_phase,2,1,15,materials/images/redA6.png,Alpha,0,2,1.7265372,1,TRUE,15
11019,test_phase,2,1,16,materials/images/yGen2.png,test,1,2,0.5285086,1,TRUE,16
11019,test_phase,2,1,17,materials/images/blueB5.png,Beta,0,2,0.0838682,1,TRUE,17
11019,training_phase_2,2,1,1,materials/images/greenD4.png,Delta,0,0,1.1423714,30,FALSE,0
11019,training_phase_2,2,1,2,materials/images/blueB5.png,Beta,0,1,0.1125298,30,FALSE,1
11019,training_phase_2,2,1,3,materials/images/redA6.png,Alpha,1,1,0.9572468,30,FALSE,2
11019,training_phase_2,2,1,4,materials/images/blackG5.png,Gamma,2,1,1.4335917,30,FALSE,3
11019,training_phase_2,2,1,5,materials/images/blueB2.png,Beta,3,0,0.6556737,30,FALSE,3
11019,training_phase_2,2,1,6,materials/images/blueB6.png,Beta,3,0,0.909764,30,FALSE,3
11019,training_phase_2,2,1,7,materials/images/greenD5.png,Delta,3,1,2.2328355,30,FALSE,4
11019,training_phase_2,2,1,8,materials/images/blackG3.png,Gamma,0,0,0.622477,30,FALSE,4
11019,training_phase_2,2,1,9,materials/images/blackG1.png,Gamma,2,1,0.6454304,30,FALSE,5
11019,training_phase_2,2,1,10,materials/images/blackG6.png,Gamma,0,0,1.8590063,30,FALSE,5
11019,training_phase_2,2,1,11,materials/images/redA1.png,Alpha,1,1,0.6750545,30,FALSE,6
11019,training_phase_2,2,1,12,materials/images/blackG4.png,Gamma,1,0,2.1279603,30,FALSE,6
11019,training_phase_2,2,1,13,materials/images/blueB4.png,Beta,0,1,8.5563311,30,FALSE,7
11019,training_phase_2,2,1,14,materials/images/greenD3.png,Delta,3,1,3.4732587,30,FALSE,8
11019,training_phase_2,2,1,15,materials/images/blueB3.png,Beta,3,0,1.2145877,30,FALSE,8
11019,training_phase_2,2,1,16,materials/images/greenD1.png,Delta,0,0,0.0201917,30,FALSE,8
11019,training_phase_2,2,1,17,materials/images/redA5.png,Alpha,2,0,1.8240016,30,FALSE,8
11019,training_phase_2,2,1,18,materials/images/redA2.png,Alpha,1,1,0.1437282,30,FALSE,9
11019,training_phase_2,2,1,19,materials/images/redA4.png,Alpha,2,0,2.3591048,30,FALSE,9
11019,training_phase_2,2,1,20,materials/images/blackG2.png,Gamma,0,0,3.1581935,30,FALSE,9
11019,training_phase_2,2,1,21,materials/images/redA3.png,Alpha,1,1,0.4006728,30,FALSE,10
11019,training_phase_2,2,1,22,materials/images/greenD2.png,Delta,0,0,2.6264874,30,FALSE,10
11019,training_phase_2,2,1,23,materials/images/blueB1.png,Beta,3,0,0.849315,30,FALSE,10
11019,training_phase_2,2,1,24,materials/images/greenD6.png,Delta,0,0,1.7304994,30,FALSE,10
11019,training_phase_2,2,2,25,materials/images/blackG2.png,Gamma,3,0,7.0223379,30,FALSE,0
11019,training_phase_2,2,2,26,materials/images/blueB1.png,Beta,3,0,0.0917217,30,FALSE,0
11019,training_phase_2,2,2,27,materials/images/greenD4.png,Delta,0,0,7.6003342,30,FALSE,0
11019,training_phase_2,2,2,28,materials/images/blueB4.png,Beta,1,0,1.4214358,30,FALSE,0
11019,training_phase_2,2,2,29,materials/images/blueB6.png,Beta,3,0,1.5675532,30,FALSE,0
11019,training_phase_2,2,2,30,materials/images/redA5.png,Alpha,2,0,1.4305152,30,FALSE,0
11019,training_phase_2,2,2,31,materials/images/greenD1.png,Delta,3,1,1.7006474,30,FALSE,1
11019,training_phase_2,2,2,32,materials/images/greenD5.png,Delta,0,0,1.9756293,30,FALSE,1
11019,training_phase_2,2,2,33,materials/images/blueB3.png,Beta,0,1,1.4196512,30,FALSE,2
11019,training_phase_2,2,2,34,materials/images/blueB2.png,Beta,0,1,2.2298135,30,FALSE,3
11019,training_phase_2,2,2,35,materials/images/blackG4.png,Gamma,2,1,1.7862363,30,FALSE,4
11019,training_phase_2,2,2,36,materials/images/redA4.png,Alpha,1,1,0.9454826,30,FALSE,5
11019,training_phase_2,2,2,37,materials/images/blackG5.png,Gamma,2,1,0.4610418,30,FALSE,6
11019,training_phase_2,2,2,38,materials/images/greenD2.png,Delta,3,1,0.7727027,30,FALSE,7
11019,training_phase_2,2,2,39,materials/images/redA1.png,Alpha,1,1,0.1536944,30,FALSE,8
11019,training_phase_2,2,2,40,materials/images/redA3.png,Alpha,2,0,0.3966533,30,FALSE,8
11019,training_phase_2,2,2,41,materials/images/greenD6.png,Delta,0,0,0.9165166,30,FALSE,8
11019,training_phase_2,2,2,42,materials/images/blueB5.png,Beta,2,0,1.925941,30,FALSE,8
11019,training_phase_2,2,2,43,materials/images/redA2.png,Alpha,1,1,0.0795606,30,FALSE,9
11019,training_phase_2,2,2,44,materials/images/blackG3.png,Gamma,0,0,2.2082773,30,FALSE,9
11019,training_phase_2,2,2,45,materials/images/greenD3.png,Delta,3,1,9.7871322,30,FALSE,10
11019,training_phase_2,2,2,46,materials/images/blackG1.png,Gamma,0,0,0.9998043,30,FALSE,10
11019,training_phase_2,2,2,47,materials/images/blackG6.png,Gamma,1,0,0.1154913,30,FALSE,10
11019,training_phase_2,2,2,48,materials/images/redA6.png,Alpha,2,0,0.9321901,30,FALSE,10
11021,training_phase_1,2,1,1,materials/images/blueB4.png,Beta,1,0,1.9743739,11,FALSE,0
11021,training_phase_1,2,1,2,materials/images/blueB2.png,Beta,0,1,0.9183569,11,FALSE,1
11021,training_phase_1,2,1,3,materials/images/blueB6.png,Beta,0,1,0.9440805,11,FALSE,2
11021,training_phase_1,2,1,4,materials/images/redA6.png,Alpha,0,0,0.487107,11,FALSE,2
11021,training_phase_1,2,1,5,materials/images/redA1.png,Alpha,1,1,1.0910052,11,FALSE,3
11021,training_phase_1,2,1,6,materials/images/redA2.png,Alpha,1,1,0.3179237,11,FALSE,4
11021,training_phase_1,2,1,7,materials/images/blueB3.png,Beta,0,1,0.0629508,11,FALSE,5
11021,training_phase_1,2,1,8,materials/images/redA3.png,Alpha,1,1,1.6800851,11,FALSE,6
11021,training_phase_1,2,1,9,materials/images/blueB5.png,Beta,0,1,0.4621476,11,FALSE,7
11021,training_phase_1,2,1,10,materials/images/redA5.png,Alpha,0,0,1.105871,11,FALSE,7
11021,training_phase_1,2,1,11,materials/images/redA4.png,Alpha,1,1,0.6861769,11,FALSE,8
11021,training_phase_1,2,1,12,materials/images/blueB1.png,Beta,1,0,0.6184275,11,FALSE,8
11021,training_phase_1,2,2,13,materials/images/blueB2.png,Beta,0,1,1.5851447,11,FALSE,1
11021,training_phase_1,2,2,14,materials/images/blueB6.png,Beta,0,1,0.7498241,11,FALSE,2
11021,training_phase_1,2,2,15,materials/images/redA1.png,Alpha,1,1,0.3079435,11,FALSE,3
11021,training_phase_1,2,2,16,materials/images/redA2.png,Alpha,1,1,0.4584524,11,FALSE,4
11021,training_phase_1,2,2,17,materials/images/blueB3.png,Beta,1,0,1.656525,11,FALSE,4
11021,training_phase_1,2,2,18,materials/images/redA3.png,Alpha,0,0,0.9615771,11,FALSE,4
11021,training_phase_1,2,2,19,materials/images/redA4.png,Alpha,1,1,0.7636715,11,FALSE,5
11021,training_phase_1,2,2,20,materials/images/redA5.png,Alpha,1,1,2.0734617,11,FALSE,6
11021,training_phase_1,2,2,21,materials/images/blueB5.png,Beta,0,1,1.7248126,11,FALSE,7
11021,training_phase_1,2,2,22,materials/images/blueB1.png,Beta,0,1,3.5408771,11,FALSE,8
11021,training_phase_1,2,2,23,materials/images/blueB4.png,Beta,1,0,0.0327979,11,FALSE,8
11021,training_phase_1,2,2,24,materials/images/redA6.png,Alpha,1,1,0.9862005,11,FALSE,9
11021,training_phase_1,2,3,25,materials/images/redA6.png,Alpha,1,1,0.6483375,11,FALSE,1
11021,training_phase_1,2,3,26,materials/images/blueB5.png,Beta,0,1,0.9134207,11,FALSE,2
11021,training_phase_1,2,3,27,materials/images/blueB2.png,Beta,1,0,0.5968788,11,FALSE,2
11021,training_phase_1,2,3,28,materials/images/redA1.png,Alpha,0,0,13.6121096,11,FALSE,2
11021,training_phase_1,2,3,29,materials/images/blueB6.png,Beta,0,1,0.5164547,11,FALSE,3
11021,training_phase_1,2,3,30,materials/images/redA5.png,Alpha,0,0,0.5169519,11,FALSE,3
11021,training_phase_1,2,3,31,materials/images/redA2.png,Alpha,1,1,0.9853996,11,FALSE,4
11021,training_phase_1,2,3,32,materials/images/blueB4.png,Beta,1,0,0.1830856,11,FALSE,4
11021,training_phase_1,2,3,33,materials/images/redA4.png,Alpha,0,0,0.0241207,11,FALSE,4
11021,training_phase_1,2,3,34,materials/images/blueB1.png,Beta,0,1,0.0860584,11,FALSE,5
11021,training_phase_1,2,3,35,materials/images/blueB3.png,Beta,1,0,2.1020193,11,FALSE,5
11021,training_phase_1,2,3,36,materials/images/redA3.png,Alpha,1,1,3.6267161,11,FALSE,6
11021,training_phase_1,2,4,37,materials/images/blueB2.png,Beta,0,1,0.3121738,11,FALSE,1
11021,training_phase_1,2,4,38,materials/images/blueB4.png,Beta,1,0,0.1471156,11,FALSE,1
11021,training_phase_1,2,4,39,materials/images/blueB6.png,Beta,0,1,0.9185571,11,FALSE,2
11021,training_phase_1,2,4,40,materials/images/redA5.png,Alpha,0,0,2.0876169,11,FALSE,2
11021,training_phase_1,2,4,41,materials/images/redA4.png,Alpha,1,1,1.7231382,11,FALSE,3
11021,training_phase_1,2,4,42,materials/images/redA6.png,Alpha,1,1,0.8825001,11,FALSE,4
11021,training_phase_1,2,4,43,materials/images/blueB1.png,Beta,0,1,2.6448238,11,FALSE,5
11021,training_phase_1,2,4,44,materials/images/redA2.png,Alpha,0,0,1.6434627,11,FALSE,5
11021,training_phase_1,2,4,45,materials/images/blueB3.png,Beta,0,1,1.1579038,11,FALSE,6
11021,training_phase_1,2,4,46,materials/images/blueB5.png,Beta,0,1,0.8735493,11,FALSE,7
11021,training_phase_1,2,4,47,materials/images/redA3.png,Alpha,1,1,0.7488521,11,FALSE,8
11021,training_phase_1,2,4,48,materials/images/redA1.png,Alpha,0,0,0.2212618,11,FALSE,8
11021,training_phase_1,2,5,49,materials/images/redA4.png,Alpha,0,0,0.3671357,11,FALSE,0
11021,training_phase_1,2,5,50,materials/images/blueB5.png,Beta,1,0,0.2784137,11,FALSE,0
11021,training_phase_1,2,5,51,materials/images/redA2.png,Alpha,0,0,4.5718989,11,FALSE,0
11021,training_phase_1,2,5,52,materials/images/redA1.png,Alpha,0,0,1.3253626,11,FALSE,0
11021,training_phase_1,2,5,53,materials/images/blueB6.png,Beta,1,0,5.1195506,11,FALSE,0
11021,training_phase_1,2,5,54,materials/images/blueB1.png,Beta,0,1,0.7061903,11,FALSE,1
11021,training_phase_1,2,5,55,materials/images/blueB2.png,Beta,0,1,0.0264436,11,FALSE,2
11021,training_phase_1,2,5,56,materials/images/redA3.png,Alpha,0,0,1.9207257,11,FALSE,2
11021,training_phase_1,2,5,57,materials/images/redA6.png,Alpha,1,1,3.2820815,11,FALSE,3
11021,training_phase_1,2,5,58,materials/images/redA5.png,Alpha,1,1,4.6719012,11,FALSE,4
11021,training_phase_1,2,5,59,materials/images/blueB3.png,Beta,0,1,2.0364918,11,FALSE,5
11021,training_phase_1,2,5,60,materials/images/blueB4.png,Beta,0,1,1.5944711,11,FALSE,6
11021,training_phase_1,2,6,61,materials/images/redA3.png,Alpha,1,1,4.7284621,11,FALSE,1
11021,training_phase_1,2,6,62,materials/images/blueB3.png,Beta,0,1,0.9200489,11,FALSE,2
11021,training_phase_1,2,6,63,materials/images/redA5.png,Alpha,1,1,1.4204744,11,FALSE,3
11021,training_phase_1,2,6,64,materials/images/redA4.png,Alpha,1,1,0.6241621,11,FALSE,4
11021,training_phase_1,2,6,65,materials/images/redA2.png,Alpha,0,0,1.4171837,11,FALSE,4
11021,training_phase_1,2,6,66,materials/images/blueB2.png,Beta,0,1,8.3191271,11,FALSE,5
11021,training_phase_1,2,6,67,materials/images/redA6.png,Alpha,1,1,2.3816181,11,FALSE,6
11021,training_phase_1,2,6,68,materials/images/blueB1.png,Beta,0,1,0.7411542,11,FALSE,7
11021,training_phase_1,2,6,69,materials/images/redA1.png,Alpha,0,0,6.951394,11,FALSE,7
11021,training_phase_1,2,6,70,materials/images/blueB4.png,Beta,1,0,1.0043915,11,FALSE,7
11021,training_phase_1,2,6,71,materials/images/blueB5.png,Beta,1,0,1.3451835,11,FALSE,7
11021,training_phase_1,2,6,72,materials/images/blueB6.png,Beta,1,0,3.5247878,11,FALSE,7
11021,training_phase_1,2,7,73,materials/images/redA6.png,Alpha,0,0,2.7402288,11,FALSE,0
11021,training_phase_1,2,7,74,materials/images/blueB6.png,Beta,1,0,1.1949401,11,FALSE,0
11021,training_phase_1,2,7,75,materials/images/redA5.png,Alpha,1,1,11.0320128,11,FALSE,1
11021,training_phase_1,2,7,76,materials/images/blueB4.png,Beta,1,0,5.1850974,11,FALSE,1
11021,training_phase_1,2,7,77,materials/images/redA3.png,Alpha,0,0,8.0957688,11,FALSE,1
11021,training_phase_1,2,7,78,materials/images/redA2.png,Alpha,1,1,5.0743567,11,FALSE,2
11021,training_phase_1,2,7,79,materials/images/redA4.png,Alpha,0,0,2.5411391,11,FALSE,2
11021,training_phase_1,2,7,80,materials/images/blueB2.png,Beta,0,1,0.1453376,11,FALSE,3
11021,training_phase_1,2,7,81,materials/images/blueB3.png,Beta,0,1,0.6674939,11,FALSE,4
11021,training_phase_1,2,7,82,materials/images/blueB5.png,Beta,0,1,2.3593885,11,FALSE,5
11021,training_phase_1,2,7,83,materials/images/blueB1.png,Beta,0,1,1.6522898,11,FALSE,6
11021,training_phase_1,2,7,84,materials/images/redA1.png,Alpha,1,1,1.5066921,11,FALSE,7
11021,training_phase_1,2,8,85,materials/images/blueB5.png,Beta,0,1,1.6038624,11,FALSE,1
11021,training_phase_1,2,8,86,materials/images/blueB1.png,Beta,0,1,0.830686,11,FALSE,2
11021,training_phase_1,2,8,87,materials/images/blueB3.png,Beta,0,1,0.8245641,11,FALSE,3
11021,training_phase_1,2,8,88,materials/images/redA5.png,Alpha,1,1,2.5193287,11,FALSE,4
11021,training_phase_1,2,8,89,materials/images/blueB4.png,Beta,0,1,1.9593436,11,FALSE,5
11021,training_phase_1,2,8,90,materials/images/redA6.png,Alpha,1,1,0.9175581,11,FALSE,6
11021,training_phase_1,2,8,91,materials/images/redA2.png,Alpha,0,0,0.5518532,11,FALSE,6
11021,training_phase_1,2,8,92,materials/images/blueB2.png,Beta,0,1,0.6408327,11,FALSE,7
11021,training_phase_1,2,8,93,materials/images/redA3.png,Alpha,1,1,0.751981,11,FALSE,8
11021,training_phase_1,2,8,94,materials/images/redA4.png,Alpha,1,1,0.6499393,11,FALSE,9
11021,training_phase_1,2,8,95,materials/images/blueB6.png,Beta,0,1,2.711833,11,FALSE,10
11021,training_phase_1,2,8,96,materials/images/redA1.png,Alpha,1,1,0.9721133,11,TRUE,11
11021,test_phase,2,1,1,materials/images/redA2.png,Alpha,1,2,9.1081389,1,TRUE,1
11021,test_phase,2,1,2,materials/images/yGen4.png,test,0,2,1.1316345,1,TRUE,2
11021,test_phase,2,1,3,materials/images/yGen2.png,test,0,2,5.174662,1,TRUE,3
11021,test_phase,2,1,4,materials/images/yGen3.png,test,0,2,29.8777751,1,TRUE,4
11021,test_phase,2,1,5,materials/images/redA3.png,Alpha,1,2,0.6004407,1,TRUE,5
11021,test_phase,2,1,6,materials/images/blueB2.png,Beta,0,2,1.9819384,1,TRUE,6
11021,test_phase,2,1,7,materials/images/blueB3.png,Beta,0,2,0.0239074,1,TRUE,7
11021,test_phase,2,1,8,materials/images/yGen1.png,test,1,2,0.4346043,1,TRUE,8
11021,test_phase,2,1,9,materials/images/blueB6.png,Beta,0,2,3.0419382,1,TRUE,9
11021,test_phase,2,1,10,materials/images/redA5.png,Alpha,1,2,1.0458835,1,TRUE,10
11021,test_phase,2,1,11,materials/images/blueB4.png,Beta,0,2,3.667703,1,TRUE,11
11021,test_phase,2,1,12,materials/images/redA6.png,Alpha,1,2,1.6314873,1,TRUE,12
11021,test_phase,2,1,13,materials/images/blueB5.png,Beta,0,2,0.7819961,1,TRUE,13
11021,test_phase,2,1,14,materials/images/redA1.png,Alpha,1,2,7.7980303,1,TRUE,14
11021,test_phase,2,1,15,materials/images/redA4.png,Alpha,1,2,1.501656,1,TRUE,15
11021,test_phase,2,1,16,materials/images/blueB1.png,Beta,0,2,0.5506525,1,TRUE,16
11021,test_phase,2,1,17,materials/images/yGen5.png,test,0,2,0.5332749,1,TRUE,17
11021,training_phase_2,2,1,1,materials/images/blackG2.png,Gamma,0,0,1.1571073,30,FALSE,0
11021,training_phase_2,2,1,2,materials/images/blueB2.png,Beta,2,0,1.6156939,30,FALSE,0
11021,training_phase_2,2,1,3,materials/images/blueB3.png,Beta,2,0,0.0809955,30,FALSE,0
11021,training_phase_2,2,1,4,materials/images/blackG4.png,Gamma,1,0,0.4306771,30,FALSE,0
11021,training_phase_2,2,1,5,materials/images/blueB5.png,Beta,3,0,0.1238688,30,FALSE,0
11021,training_phase_2,2,1,6,materials/images/redA3.png,Alpha,2,0,0.7145175,30,FALSE,0
11021,training_phase_2,2,1,7,materials/images/redA6.png,Alpha,1,1,0.7828535,30,FALSE,1
11021,training_phase_2,2,1,8,materials/images/blackG5.png,Gamma,1,0,0.2395809,30,FALSE,1
11021,training_phase_2,2,1,9,materials/images/greenD6.png,Delta,3,1,0.2317198,30,FALSE,2
11021,training_phase_2,2,1,10,materials/images/greenD1.png,Delta,3,1,0.0448656,30,FALSE,3
11021,training_phase_2,2,1,11,materials/images/greenD4.png,Delta,3,1,0.651709,30,FALSE,4
11021,training_phase_2,2,1,12,materials/images/blueB4.png,Beta,1,0,0.0240169,30,FALSE,4
11021,training_phase_2,2,1,13,materials/images/greenD2.png,Delta,2,0,0.3625621,30,FALSE,4
11021,training_phase_2,2,1,14,materials/images/blueB6.png,Beta,2,0,0.0186671,30,FALSE,4
11021,training_phase_2,2,1,15,materials/images/redA1.png,Alpha,2,0,0.5749783,30,FALSE,4
11021,training_phase_2,2,1,16,materials/images/redA5.png,Alpha,0,0,0.4918078,30,FALSE,4
11021,training_phase_2,2,1,17,materials/images/greenD3.png,Delta,3,1,7.781026,30,FALSE,5
11021,training_phase_2,2,1,18,materials/images/redA2.png,Alpha,2,0,3.0125642,30,FALSE,5
11021,training_phase_2,2,1,19,materials/images/greenD5.png,Delta,3,1,0.6048088,30,FALSE,6
11021,training_phase_2,2,1,20,materials/images/blackG1.png,Gamma,0,0,0.8057768,30,FALSE,6
11021,training_phase_2,2,1,21,materials/images/blackG3.png,Gamma,2,1,0.2757004,30,FALSE,7
11021,training_phase_2,2,1,22,materials/images/blackG6.png,Gamma,0,0,0.0742018,30,FALSE,7
11021,training_phase_2,2,1,23,materials/images/redA4.png,Alpha,2,0,0.2614469,30,FALSE,7
11021,training_phase_2,2,1,24,materials/images/blueB1.png,Beta,3,0,0.3443609,30,FALSE,7
11021,training_phase_2,2,2,25,materials/images/redA1.png,Alpha,1,1,0.7703567,30,FALSE,1
11021,training_phase_2,2,2,26,materials/images/blueB3.png,Beta,3,0,0.5154923,30,FALSE,1
11021,training_phase_2,2,2,27,materials/images/blackG1.png,Gamma,0,0,10.7643162,30,FALSE,1
11021,training_phase_2,2,2,28,materials/images/redA3.png,Alpha,2,0,0.1232452,30,FALSE,1
11021,training_phase_2,2,2,29,materials/images/greenD1.png,Delta,3,1,2.1941373,30,FALSE,2
11021,training_phase_2,2,2,30,materials/images/greenD4.png,Delta,3,1,0.5211622,30,FALSE,3
11021,training_phase_2,2,2,31,materials/images/blackG4.png,Gamma,0,0,1.6685813,30,FALSE,3
11021,training_phase_2,2,2,32,materials/images/redA4.png,Alpha,2,0,0.3715224,30,FALSE,3
11021,training_phase_2,2,2,33,materials/images/redA2.png,Alpha,0,0,1.3756087,30,FALSE,3
11021,training_phase_2,2,2,34,materials/images/blueB5.png,Beta,1,0,0.0188167,30,FALSE,3
11021,training_phase_2,2,2,35,materials/images/greenD5.png,Delta,3,1,0.2018261,30,FALSE,4
11021,training_phase_2,2,2,36,materials/images/blackG6.png,Gamma,0,0,1.1509483,30,FALSE,4
11021,training_phase_2,2,2,37,materials/images/blackG3.png,Gamma,2,1,0.4393756,30,FALSE,5
11021,training_phase_2,2,2,38,materials/images/redA5.png,Alpha,2,0,1.6089534,30,FALSE,5
11021,training_phase_2,2,2,39,materials/images/greenD6.png,Delta,3,1,0.4806876,30,FALSE,6
11021,training_phase_2,2,2,40,materials/images/blackG2.png,Gamma,2,1,0.1040953,30,FALSE,7
11021,training_phase_2,2,2,41,materials/images/blueB6.png,Beta,2,0,0.2575946,30,FALSE,7
11021,training_phase_2,2,2,42,materials/images/redA6.png,Alpha,1,1,0.8684768,30,FALSE,8
11021,training_phase_2,2,2,43,materials/images/blueB1.png,Beta,3,0,0.2407282,30,FALSE,8
11021,training_phase_2,2,2,44,materials/images/blueB2.png,Beta,2,0,0.173043,30,FALSE,8
11021,training_phase_2,2,2,45,materials/images/greenD3.png,Delta,3,1,0.8196727,30,FALSE,9
11021,training_phase_2,2,2,46,materials/images/greenD2.png,Delta,3,1,0.0875642,30,FALSE,10
11021,training_phase_2,2,2,47,materials/images/blackG5.png,Gamma,0,0,0.258039,30,FALSE,10
11021,training_phase_2,2,2,48,materials/images/blueB4.png,Beta,2,0,0.4659493,30,FALSE,10
11023,training_phase_1,2,1,1,materials/images/blueB2.png,Beta,1,0,2.5037337,11,FALSE,0
11023,training_phase_1,2,1,2,materials/images/blueB3.png,Beta,0,1,0.7611978,11,FALSE,1
11023,training_phase_1,2,1,3,materials/images/redA3.png,Alpha,1,1,2.9662544,11,FALSE,2
11023,training_phase_1,2,1,4,materials/images/redA4.png,Alpha,1,1,1.4926742,11,FALSE,3
11023,training_phase_1,2,1,5,materials/images/blueB1.png,Beta,0,1,0.8061365,11,FALSE,4
11023,training_phase_1,2,1,6,materials/images/redA1.png,Alpha,1,1,0.016844,11,FALSE,5
11023,training_phase_1,2,1,7,materials/images/blueB6.png,Beta,0,1,0.7002101,11,FALSE,6
11023,training_phase_1,2,1,8,materials/images/blueB5.png,Beta,1,0,0.9273185,11,FALSE,6
11023,training_phase_1,2,1,9,materials/images/redA2.png,Alpha,1,1,0.8540086,11,FALSE,7
11023,training_phase_1,2,1,10,materials/images/redA6.png,Alpha,1,1,0.230053,11,FALSE,8
11023,training_phase_1,2,1,11,materials/images/redA5.png,Alpha,1,1,1.3516076,11,FALSE,9
11023,training_phase_1,2,1,12,materials/images/blueB4.png,Beta,1,0,0.0687788,11,FALSE,9
11023,training_phase_1,2,2,13,materials/images/redA3.png,Alpha,1,1,0.5607467,11,FALSE,1
11023,training_phase_1,2,2,14,materials/images/redA1.png,Alpha,0,0,1.7384343,11,FALSE,1
11023,training_phase_1,2,2,15,materials/images/blueB6.png,Beta,1,0,0.5324566,11,FALSE,1
11023,training_phase_1,2,2,16,materials/images/blueB4.png,Beta,1,0,1.5219436,11,FALSE,1
11023,training_phase_1,2,2,17,materials/images/redA2.png,Alpha,1,1,0.0210838,11,FALSE,2
11023,training_phase_1,2,2,18,materials/images/blueB1.png,Beta,0,1,1.197578,11,FALSE,3
11023,training_phase_1,2,2,19,materials/images/redA4.png,Alpha,1,1,1.1704074,11,FALSE,4
11023,training_phase_1,2,2,20,materials/images/redA6.png,Alpha,0,0,1.1369629,11,FALSE,4
11023,training_phase_1,2,2,21,materials/images/blueB2.png,Beta,0,1,0.3870665,11,FALSE,5
11023,training_phase_1,2,2,22,materials/images/redA5.png,Alpha,1,1,1.6269412,11,FALSE,6
11023,training_phase_1,2,2,23,materials/images/blueB5.png,Beta,0,1,1.0900283,11,FALSE,7
11023,training_phase_1,2,2,24,materials/images/blueB3.png,Beta,0,1,0.0168747,11,FALSE,8
11023,training_phase_1,2,3,25,materials/images/blueB4.png,Beta,1,0,1.3320326,11,FALSE,0
11023,training_phase_1,2,3,26,materials/images/blueB1.png,Beta,0,1,0.0580705,11,FALSE,1
11023,training_phase_1,2,3,27,materials/images/blueB3.png,Beta,0,1,1.7817637,11,FALSE,2
11023,training_phase_1,2,3,28,materials/images/blueB2.png,Beta,0,1,0.597589,11,FALSE,3
11023,training_phase_1,2,3,29,materials/images/redA6.png,Alpha,1,1,1.0272661,11,FALSE,4
11023,training_phase_1,2,3,30,materials/images/redA4.png,Alpha,1,1,0.5560822,11,FALSE,5
11023,training_phase_1,2,3,31,materials/images/redA5.png,Alpha,1,1,0.5324568,11,FALSE,6
11023,training_phase_1,2,3,32,materials/images/redA3.png,Alpha,1,1,1.0713645,11,FALSE,7
11023,training_phase_1,2,3,33,materials/images/blueB6.png,Beta,1,0,0.841727,11,FALSE,7
11023,training_phase_1,2,3,34,materials/images/redA2.png,Alpha,1,1,0.1672817,11,FALSE,8
11023,training_phase_1,2,3,35,materials/images/blueB5.png,Beta,1,0,0.783874,11,FALSE,8
11023,training_phase_1,2,3,36,materials/images/redA1.png,Alpha,1,1,0.8612909,11,FALSE,9
11023,training_phase_1,2,4,37,materials/images/blueB2.png,Beta,0,1,0.3405411,11,FALSE,1
11023,training_phase_1,2,4,38,materials/images/redA6.png,Alpha,0,0,1.2000442,11,FALSE,1
11023,training_phase_1,2,4,39,materials/images/blueB3.png,Beta,0,1,0.1163191,11,FALSE,2
11023,training_phase_1,2,4,40,materials/images/blueB4.png,Beta,1,0,0.0232975,11,FALSE,2
11023,training_phase_1,2,4,41,materials/images/redA5.png,Alpha,0,0,0.6185216,11,FALSE,2
11023,training_phase_1,2,4,42,materials/images/redA4.png,Alpha,0,0,0.6561086,11,FALSE,2
11023,training_phase_1,2,4,43,materials/images/blueB1.png,Beta,0,1,0.0383689,11,FALSE,3
11023,training_phase_1,2,4,44,materials/images/blueB5.png,Beta,0,1,0.1808242,11,FALSE,4
11023,training_phase_1,2,4,45,materials/images/redA2.png,Alpha,0,0,0.0170324,11,FALSE,4
11023,training_phase_1,2,4,46,materials/images/redA3.png,Alpha,1,1,1.4374659,11,FALSE,5
11023,training_phase_1,2,4,47,materials/images/redA1.png,Alpha,0,0,0.3095657,11,FALSE,5
11023,training_phase_1,2,4,48,materials/images/blueB6.png,Beta,0,1,0.1463822,11,FALSE,6
11023,training_phase_1,2,5,49,materials/images/redA4.png,Alpha,1,1,0.8956477,11,FALSE,1
11023,training_phase_1,2,5,50,materials/images/blueB5.png,Beta,0,1,0.3115651,11,FALSE,2
11023,training_phase_1,2,5,51,materials/images/blueB2.png,Beta,0,1,0.54102,11,FALSE,3
11023,training_phase_1,2,5,52,materials/images/redA6.png,Alpha,0,0,0.7212407,11,FALSE,3
11023,training_phase_1,2,5,53,materials/images/redA3.png,Alpha,1,1,0.8599021,11,FALSE,4
11023,training_phase_1,2,5,54,materials/images/blueB4.png,Beta,0,1,0.0210228,11,FALSE,5
11023,training_phase_1,2,5,55,materials/images/blueB6.png,Beta,0,1,0.4548206,11,FALSE,6
11023,training_phase_1,2,5,56,materials/images/blueB1.png,Beta,0,1,0.0207206,11,FALSE,7
11023,training_phase_1,2,5,57,materials/images/redA5.png,Alpha,1,1,0.3664636,11,FALSE,8
11023,training_phase_1,2,5,58,materials/images/redA1.png,Alpha,1,1,0.1093677,11,FALSE,9
11023,training_phase_1,2,5,59,materials/images/redA2.png,Alpha,1,1,0.021447,11,FALSE,10
11023,training_phase_1,2,5,60,materials/images/blueB3.png,Beta,0,1,0.3969807,11,TRUE,11
11023,test_phase,2,1,1,materials/images/blueB2.png,Beta,0,2,0.7815963,1,TRUE,1
11023,test_phase,2,1,2,materials/images/redA5.png,Alpha,1,2,2.8444951,1,TRUE,2
11023,test_phase,2,1,3,materials/images/blueB6.png,Beta,0,2,0.1793139,1,TRUE,3
11023,test_phase,2,1,4,materials/images/yGen2.png,test,0,2,0.4201598,1,TRUE,4
11023,test_phase,2,1,5,materials/images/redA3.png,Alpha,0,2,0.6711303,1,TRUE,5
11023,test_phase,2,1,6,materials/images/yGen5.png,test,0,2,0.3596968,1,TRUE,6
11023,test_phase,2,1,7,materials/images/redA2.png,Alpha,1,2,0.3289986,1,TRUE,7
11023,test_phase,2,1,8,materials/images/blueB4.png,Beta,1,2,0.1755194,1,TRUE,8
11023,test_phase,2,1,9,materials/images/yGen1.png,test,1,2,0.0213146,1,TRUE,9
11023,test_phase,2,1,10,materials/images/blueB1.png,Beta,0,2,0.2360279,1,TRUE,10
11023,test_phase,2,1,11,materials/images/blueB5.png,Beta,0,2,0.7733558,1,TRUE,11
11023,test_phase,2,1,12,materials/images/yGen3.png,test,1,2,0.1399905,1,TRUE,12
11023,test_phase,2,1,13,materials/images/blueB3.png,Beta,0,2,0.0165993,1,TRUE,13
11023,test_phase,2,1,14,materials/images/redA1.png,Alpha,1,2,0.0790502,1,TRUE,14
11023,test_phase,2,1,15,materials/images/redA4.png,Alpha,1,2,0.016803,1,TRUE,15
11023,test_phase,2,1,16,materials/images/yGen4.png,test,0,2,0.01675,1,TRUE,16
11023,test_phase,2,1,17,materials/images/redA6.png,Alpha,0,2,3.8641441,1,TRUE,17
11023,training_phase_2,2,1,1,materials/images/blackG5.png,Gamma,2,1,0.0628427,30,FALSE,1
11023,training_phase_2,2,1,2,materials/images/redA2.png,Alpha,2,0,0.016838,30,FALSE,1
11023,training_phase_2,2,1,3,materials/images/redA1.png,Alpha,0,0,0.3001967,30,FALSE,1
11023,training_phase_2,2,1,4,materials/images/blueB6.png,Beta,0,1,0.0168155,30,FALSE,2
11023,training_phase_2,2,1,5,materials/images/blueB2.png,Beta,0,1,0.0210845,30,FALSE,3
11023,training_phase_2,2,1,6,materials/images/greenD3.png,Delta,0,0,0.1078994,30,FALSE,3
11023,training_phase_2,2,1,7,materials/images/greenD2.png,Delta,3,1,0.2769844,30,FALSE,4
11023,training_phase_2,2,1,8,materials/images/blackG2.png,Gamma,0,0,0.0209994,30,FALSE,4
11023,training_phase_2,2,1,9,materials/images/blackG1.png,Gamma,0,0,0.0832836,30,FALSE,4
11023,training_phase_2,2,1,10,materials/images/blueB4.png,Beta,0,1,0.0162904,30,FALSE,5
11023,training_phase_2,2,1,11,materials/images/greenD4.png,Delta,2,0,0.0720627,30,FALSE,5
11023,training_phase_2,2,1,12,materials/images/greenD1.png,Delta,3,1,0.0211985,30,FALSE,6
11023,training_phase_2,2,1,13,materials/images/greenD5.png,Delta,2,0,0.0173441,30,FALSE,6
11023,training_phase_2,2,1,14,materials/images/blueB5.png,Beta,2,0,0.0573861,30,FALSE,6
11023,training_phase_2,2,1,15,materials/images/redA5.png,Alpha,0,0,0.018633,30,FALSE,6
11023,training_phase_2,2,1,16,materials/images/blackG4.png,Gamma,0,0,0.40089,30,FALSE,6
11023,training_phase_2,2,1,17,materials/images/redA6.png,Alpha,0,0,0.9636773,30,FALSE,6
11023,training_phase_2,2,1,18,materials/images/blackG6.png,Gamma,3,0,0.7373569,30,FALSE,6
11023,training_phase_2,2,1,19,materials/images/redA4.png,Alpha,1,1,0.371966,30,FALSE,7
11023,training_phase_2,2,1,20,materials/images/greenD6.png,Delta,2,0,0.5655099,30,FALSE,7
11023,training_phase_2,2,1,21,materials/images/blueB1.png,Beta,0,1,0.016716,30,FALSE,8
11023,training_phase_2,2,1,22,materials/images/blueB3.png,Beta,2,0,0.0170265,30,FALSE,8
11023,training_phase_2,2,1,23,materials/images/blackG3.png,Gamma,0,0,0.1746534,30,FALSE,8
11023,training_phase_2,2,1,24,materials/images/redA3.png,Alpha,1,1,0.107122,30,FALSE,9
11023,training_phase_2,2,2,25,materials/images/redA4.png,Alpha,1,1,0.825571,30,FALSE,1
11023,training_phase_2,2,2,26,materials/images/blueB6.png,Beta,3,0,3.0828172,30,FALSE,1
11023,training_phase_2,2,2,27,materials/images/blackG1.png,Gamma,2,1,1.2263873,30,FALSE,2
11023,training_phase_2,2,2,28,materials/images/blueB4.png,Beta,0,1,0.8712829,30,FALSE,3
11023,training_phase_2,2,2,29,materials/images/blackG3.png,Gamma,2,1,0.1921745,30,FALSE,4
11023,training_phase_2,2,2,30,materials/images/redA6.png,Alpha,2,0,0.7296132,30,FALSE,4
11023,training_phase_2,2,2,31,materials/images/redA2.png,Alpha,1,1,0.1243961,30,FALSE,5
11023,training_phase_2,2,2,32,materials/images/redA5.png,Alpha,0,0,0.5485282,30,FALSE,5
11023,training_phase_2,2,2,33,materials/images/greenD2.png,Delta,2,0,0.7450151,30,FALSE,5
11023,training_phase_2,2,2,34,materials/images/redA3.png,Alpha,3,0,0.4654661,30,FALSE,5
11023,training_phase_2,2,2,35,materials/images/greenD6.png,Delta,0,0,0.3394764,30,FALSE,5
11023,training_phase_2,2,2,36,materials/images/greenD5.png,Delta,2,0,0.2288867,30,FALSE,5
11023,training_phase_2,2,2,37,materials/images/blackG5.png,Gamma,0,0,0.7092116,30,FALSE,5
11023,training_phase_2,2,2,38,materials/images/greenD3.png,Delta,0,0,0.4734475,30,FALSE,5
11023,training_phase_2,2,2,39,materials/images/blueB3.png,Beta,3,0,0.3737271,30,FALSE,5
11023,training_phase_2,2,2,40,materials/images/blueB1.png,Beta,0,1,0.6514545,30,FALSE,6
11023,training_phase_2,2,2,41,materials/images/blackG2.png,Gamma,0,0,0.3622889,30,FALSE,6
11023,training_phase_2,2,2,42,materials/images/blueB5.png,Beta,0,1,0.2443063,30,FALSE,7
11023,training_phase_2,2,2,43,materials/images/blueB2.png,Beta,0,1,0.3200256,30,FALSE,8
11023,training_phase_2,2,2,44,materials/images/blackG6.png,Gamma,2,1,0.0208447,30,FALSE,9
11023,training_phase_2,2,2,45,materials/images/greenD4.png,Delta,2,0,0.1816498,30,FALSE,9
11023,training_phase_2,2,2,46,materials/images/greenD1.png,Delta,0,0,0.2169703,30,FALSE,9
11023,training_phase_2,2,2,47,materials/images/redA1.png,Alpha,0,0,0.2280401,30,FALSE,9
11023,training_phase_2,2,2,48,materials/images/blackG4.png,Gamma,3,0,0.5797761,30,FALSE,9
11025,training_phase_1,2,1,1,materials/images/blueB4.png,Beta,1,0,1.5704817,11,FALSE,0
11025,training_phase_1,2,1,2,materials/images/redA6.png,Alpha,0,0,2.6524482,11,FALSE,0
11025,training_phase_1,2,1,3,materials/images/blueB1.png,Beta,1,0,1.1606989,11,FALSE,0
11025,training_phase_1,2,1,4,materials/images/redA3.png,Alpha,1,1,1.9015269,11,FALSE,1
11025,training_phase_1,2,1,5,materials/images/blueB5.png,Beta,0,1,2.1426953,11,FALSE,2
11025,training_phase_1,2,1,6,materials/images/blueB2.png,Beta,1,0,1.0193498,11,FALSE,2
11025,training_phase_1,2,1,7,materials/images/blueB3.png,Beta,1,0,0.4843329,11,FALSE,2
11025,training_phase_1,2,1,8,materials/images/redA2.png,Alpha,1,1,0.572327,11,FALSE,3
11025,training_phase_1,2,1,9,materials/images/blueB6.png,Beta,0,1,2.8318885,11,FALSE,4
11025,training_phase_1,2,1,10,materials/images/redA1.png,Alpha,1,1,0.4996532,11,FALSE,5
11025,training_phase_1,2,1,11,materials/images/redA5.png,Alpha,0,0,0.2709934,11,FALSE,5
11025,training_phase_1,2,1,12,materials/images/redA4.png,Alpha,1,1,0.0236497,11,FALSE,6
11025,training_phase_1,2,2,13,materials/images/blueB6.png,Beta,0,1,0.0239754,11,FALSE,1
11025,training_phase_1,2,2,14,materials/images/redA3.png,Alpha,1,1,0.0941546,11,FALSE,2
11025,training_phase_1,2,2,15,materials/images/blueB2.png,Beta,1,0,0.4085862,11,FALSE,2
11025,training_phase_1,2,2,16,materials/images/redA5.png,Alpha,1,1,31.0218263,11,FALSE,3
11025,training_phase_1,2,2,17,materials/images/redA1.png,Alpha,0,0,2.4461747,11,FALSE,3
11025,training_phase_1,2,2,18,materials/images/blueB3.png,Beta,1,0,0.3820862,11,FALSE,3
11025,training_phase_1,2,2,19,materials/images/redA4.png,Alpha,0,0,4.8105138,11,FALSE,3
11025,training_phase_1,2,2,20,materials/images/redA2.png,Alpha,1,1,3.0449742,11,FALSE,4
11025,training_phase_1,2,2,21,materials/images/blueB5.png,Beta,0,1,0.743205,11,FALSE,5
11025,training_phase_1,2,2,22,materials/images/blueB4.png,Beta,1,0,13.5423107,11,FALSE,5
11025,training_phase_1,2,2,23,materials/images/blueB1.png,Beta,0,1,18.3385191,11,FALSE,6
11025,training_phase_1,2,2,24,materials/images/redA6.png,Alpha,1,1,1.0225746,11,FALSE,7
11025,training_phase_1,2,3,25,materials/images/redA4.png,Alpha,0,0,3.5638483,11,FALSE,0
11025,training_phase_1,2,3,26,materials/images/redA2.png,Alpha,1,1,0.0236373,11,FALSE,1
11025,training_phase_1,2,3,27,materials/images/redA1.png,Alpha,1,1,0.0311899,11,FALSE,2
11025,training_phase_1,2,3,28,materials/images/blueB5.png,Beta,0,1,0.453171,11,FALSE,3
11025,training_phase_1,2,3,29,materials/images/redA6.png,Alpha,1,1,0.1912575,11,FALSE,4
11025,training_phase_1,2,3,30,materials/images/blueB4.png,Beta,0,1,0.3877477,11,FALSE,5
11025,training_phase_1,2,3,31,materials/images/blueB3.png,Beta,0,1,0.198376,11,FALSE,6
11025,training_phase_1,2,3,32,materials/images/blueB1.png,Beta,1,0,0.4179783,11,FALSE,6
11025,training_phase_1,2,3,33,materials/images/redA5.png,Alpha,1,1,1.9050123,11,FALSE,7
11025,training_phase_1,2,3,34,materials/images/blueB6.png,Beta,0,1,1.6835343,11,FALSE,8
11025,training_phase_1,2,3,35,materials/images/redA3.png,Alpha,1,1,0.0449681,11,FALSE,9
11025,training_phase_1,2,3,36,materials/images/blueB2.png,Beta,1,0,0.638237,11,FALSE,9
11025,training_phase_1,2,4,37,materials/images/redA3.png,Alpha,1,1,0.1641943,11,FALSE,1
11025,training_phase_1,2,4,38,materials/images/redA2.png,Alpha,1,1,0.3493217,11,FALSE,2
11025,training_phase_1,2,4,39,materials/images/blueB6.png,Beta,0,1,0.0191823,11,FALSE,3
11025,training_phase_1,2,4,40,materials/images/redA5.png,Alpha,0,0,0.1565276,11,FALSE,3
11025,training_phase_1,2,4,41,materials/images/blueB4.png,Beta,1,0,0.6332692,11,FALSE,3
11025,training_phase_1,2,4,42,materials/images/redA6.png,Alpha,1,1,9.2563347,11,FALSE,4
11025,training_phase_1,2,4,43,materials/images/blueB1.png,Beta,1,0,0.2894921,11,FALSE,4
11025,training_phase_1,2,4,44,materials/images/redA1.png,Alpha,1,1,0.1131646,11,FALSE,5
11025,training_phase_1,2,4,45,materials/images/blueB2.png,Beta,0,1,1.0518753,11,FALSE,6
11025,training_phase_1,2,4,46,materials/images/redA4.png,Alpha,1,1,0.0185605,11,FALSE,7
11025,training_phase_1,2,4,47,materials/images/blueB5.png,Beta,0,1,0.2351236,11,FALSE,8
11025,training_phase_1,2,4,48,materials/images/blueB3.png,Beta,1,0,0.4377706,11,FALSE,8
11025,training_phase_1,2,5,49,materials/images/blueB2.png,Beta,1,0,0.772349,11,FALSE,0
11025,training_phase_1,2,5,50,materials/images/blueB1.png,Beta,0,1,0.0646639,11,FALSE,1
11025,training_phase_1,2,5,51,materials/images/blueB5.png,Beta,0,1,0.7452348,11,FALSE,2
11025,training_phase_1,2,5,52,materials/images/redA2.png,Alpha,1,1,0.4044529,11,FALSE,3
11025,training_phase_1,2,5,53,materials/images/blueB4.png,Beta,0,1,0.0183916,11,FALSE,4
11025,training_phase_1,2,5,54,materials/images/redA6.png,Alpha,0,0,0.670896,11,FALSE,4
11025,training_phase_1,2,5,55,materials/images/redA4.png,Alpha,1,1,0.943274,11,FALSE,5
11025,training_phase_1,2,5,56,materials/images/redA1.png,Alpha,1,1,0.0870132,11,FALSE,6
11025,training_phase_1,2,5,57,materials/images/blueB3.png,Beta,0,1,0.3357615,11,FALSE,7
11025,training_phase_1,2,5,58,materials/images/redA5.png,Alpha,1,1,0.0330798,11,FALSE,8
11025,training_phase_1,2,5,59,materials/images/blueB6.png,Beta,0,1,0.3066808,11,FALSE,9
11025,training_phase_1,2,5,60,materials/images/redA3.png,Alpha,1,1,0.375751,11,FALSE,10
11025,training_phase_1,2,6,61,materials/images/redA2.png,Alpha,1,1,0.5304381,11,FALSE,1
11025,training_phase_1,2,6,62,materials/images/blueB1.png,Beta,0,1,0.2385781,11,FALSE,2
11025,training_phase_1,2,6,63,materials/images/blueB2.png,Beta,0,1,0.1972646,11,FALSE,3
11025,training_phase_1,2,6,64,materials/images/redA5.png,Alpha,1,1,1.4581441,11,FALSE,4
11025,training_phase_1,2,6,65,materials/images/blueB5.png,Beta,0,1,0.0189115,11,FALSE,5
11025,training_phase_1,2,6,66,materials/images/redA1.png,Alpha,1,1,1.6047368,11,FALSE,6
11025,training_phase_1,2,6,67,materials/images/blueB4.png,Beta,0,1,0.4718869,11,FALSE,7
11025,training_phase_1,2,6,68,materials/images/redA3.png,Alpha,1,1,0.269645,11,FALSE,8
11025,training_phase_1,2,6,69,materials/images/blueB3.png,Beta,1,0,1.9620109,11,FALSE,8
11025,training_phase_1,2,6,70,materials/images/blueB6.png,Beta,0,1,0.0551114,11,FALSE,9
11025,training_phase_1,2,6,71,materials/images/redA4.png,Alpha,1,1,0.3903237,11,FALSE,10
11025,training_phase_1,2,6,72,materials/images/redA6.png,Alpha,1,1,0.3500017,11,TRUE,11
11025,test_phase,2,1,1,materials/images/yGen2.png,test,1,2,2.2220422,1,TRUE,1
11025,test_phase,2,1,2,materials/images/blueB4.png,Beta,1,2,0.0191026,1,TRUE,2
11025,test_phase,2,1,3,materials/images/redA5.png,Alpha,1,2,5.0090349,1,TRUE,3
11025,test_phase,2,1,4,materials/images/yGen3.png,test,0,2,0.0230323,1,TRUE,4
11025,test_phase,2,1,5,materials/images/redA2.png,Alpha,1,2,0.6811197,1,TRUE,5
11025,test_phase,2,1,6,materials/images/redA3.png,Alpha,1,2,1.1956601,1,TRUE,6
11025,test_phase,2,1,7,materials/images/redA6.png,Alpha,1,2,2.4676371,1,TRUE,7
11025,test_phase,2,1,8,materials/images/blueB3.png,Beta,0,2,0.4272803,1,TRUE,8
11025,test_phase,2,1,9,materials/images/yGen5.png,test,0,2,0.0235464,1,TRUE,9
11025,test_phase,2,1,10,materials/images/blueB5.png,Beta,0,2,0.961668,1,TRUE,10
11025,test_phase,2,1,11,materials/images/blueB2.png,Beta,0,2,0.3750514,1,TRUE,11
11025,test_phase,2,1,12,materials/images/blueB6.png,Beta,0,2,1.4250355,1,TRUE,12
11025,test_phase,2,1,13,materials/images/blueB1.png,Beta,0,2,1.6775335,1,TRUE,13
11025,test_phase,2,1,14,materials/images/yGen4.png,test,0,2,1.1352214,1,TRUE,14
11025,test_phase,2,1,15,materials/images/redA1.png,Alpha,1,2,0.3458805,1,TRUE,15
11025,test_phase,2,1,16,materials/images/yGen1.png,test,1,2,7.6389886,1,TRUE,16
11025,test_phase,2,1,17,materials/images/redA4.png,Alpha,1,2,0.1779919,1,TRUE,17
11025,training_phase_2,2,1,1,materials/images/redA2.png,Alpha,1,1,1.2948204,30,FALSE,1
11025,training_phase_2,2,1,2,materials/images/blueB3.png,Beta,0,1,0.0193705,30,FALSE,2
11025,training_phase_2,2,1,3,materials/images/greenD5.png,Delta,0,0,0.0230825,30,FALSE,2
11025,training_phase_2,2,1,4,materials/images/greenD2.png,Delta,3,1,0.1935242,30,FALSE,3
11025,training_phase_2,2,1,5,materials/images/blueB5.png,Beta,2,0,1.5753252,30,FALSE,3
11025,training_phase_2,2,1,6,materials/images/redA1.png,Alpha,1,1,0.0971677,30,FALSE,4
11025,training_phase_2,2,1,7,materials/images/greenD6.png,Delta,3,1,0.2721993,30,FALSE,5
11025,training_phase_2,2,1,8,materials/images/blackG4.png,Gamma,0,0,0.468626,30,FALSE,5
11025,training_phase_2,2,1,9,materials/images/blackG3.png,Gamma,0,0,0.0929198,30,FALSE,5
11025,training_phase_2,2,1,10,materials/images/greenD3.png,Delta,3,1,0.0229078,30,FALSE,6
11025,training_phase_2,2,1,11,materials/images/redA4.png,Alpha,1,1,0.107814,30,FALSE,7
11025,training_phase_2,2,1,12,materials/images/greenD1.png,Delta,0,0,4.3864351,30,FALSE,7
11025,training_phase_2,2,1,13,materials/images/redA3.png,Alpha,1,1,0.4169064,30,FALSE,8
11025,training_phase_2,2,1,14,materials/images/blackG6.png,Gamma,0,0,0.1700793,30,FALSE,8
11025,training_phase_2,2,1,15,materials/images/blackG2.png,Gamma,0,0,0.3908678,30,FALSE,8
11025,training_phase_2,2,1,16,materials/images/redA6.png,Alpha,0,0,0.0953613,30,FALSE,8
11025,training_phase_2,2,1,17,materials/images/blackG5.png,Gamma,0,0,0.6306595,30,FALSE,8
11025,training_phase_2,2,1,18,materials/images/redA5.png,Alpha,2,0,1.0879399,30,FALSE,8
11025,training_phase_2,2,1,19,materials/images/greenD4.png,Delta,3,1,0.0197229,30,FALSE,9
11025,training_phase_2,2,1,20,materials/images/blueB1.png,Beta,0,1,0.7091851,30,FALSE,10
11025,training_phase_2,2,1,21,materials/images/blueB6.png,Beta,2,0,0.4825591,30,FALSE,10
11025,training_phase_2,2,1,22,materials/images/blackG1.png,Gamma,1,0,0.9721901,30,FALSE,10
11025,training_phase_2,2,1,23,materials/images/blueB4.png,Beta,2,0,12.6400576,30,FALSE,10
11025,training_phase_2,2,1,24,materials/images/blueB2.png,Beta,3,0,1.0681786,30,FALSE,10
11025,training_phase_2,2,2,25,materials/images/blueB3.png,Beta,3,0,0.023225,30,FALSE,0
11025,training_phase_2,2,2,26,materials/images/redA6.png,Alpha,0,0,16.3111136,30,FALSE,0
11025,training_phase_2,2,2,27,materials/images/greenD1.png,Delta,0,0,0.5759912,30,FALSE,0
11025,training_phase_2,2,2,28,materials/images/greenD6.png,Delta,0,0,0.2631659,30,FALSE,0
11025,training_phase_2,2,2,29,materials/images/blueB4.png,Beta,2,0,0.3293742,30,FALSE,0
11025,training_phase_2,2,2,30,materials/images/blackG3.png,Gamma,0,0,0.0311229,30,FALSE,0
11025,training_phase_2,2,2,31,materials/images/greenD2.png,Delta,3,1,0.2289717,30,FALSE,1
11025,training_phase_2,2,2,32,materials/images/blackG4.png,Gamma,0,0,2.1974696,30,FALSE,1
11025,training_phase_2,2,2,33,materials/images/blackG2.png,Gamma,1,0,0.0185109,30,FALSE,1
11025,training_phase_2,2,2,34,materials/images/greenD3.png,Delta,3,1,16.7893428,30,FALSE,2
11025,training_phase_2,2,2,35,materials/images/greenD4.png,Delta,3,1,0.4357564,30,FALSE,3
11025,training_phase_2,2,2,36,materials/images/redA3.png,Alpha,1,1,0.2919557,30,FALSE,4
11025,training_phase_2,2,2,37,materials/images/blueB5.png,Beta,0,1,0.6005893,30,FALSE,5
11025,training_phase_2,2,2,38,materials/images/redA2.png,Alpha,1,1,0.0352746,30,FALSE,6
11025,training_phase_2,2,2,39,materials/images/blackG5.png,Gamma,0,0,0.0185817,30,FALSE,6
11025,training_phase_2,2,2,40,materials/images/blackG6.png,Gamma,2,1,0.7185482,30,FALSE,7
11025,training_phase_2,2,2,41,materials/images/blueB1.png,Beta,0,1,2.2953267,30,FALSE,8
11025,training_phase_2,2,2,42,materials/images/blackG1.png,Gamma,0,0,1.0120728,30,FALSE,8
11025,training_phase_2,2,2,43,materials/images/redA5.png,Alpha,0,0,0.0223637,30,FALSE,8
11025,training_phase_2,2,2,44,materials/images/redA4.png,Alpha,1,1,0.0226063,30,FALSE,9
11025,training_phase_2,2,2,45,materials/images/greenD5.png,Delta,3,1,0.1601163,30,FALSE,10
11025,training_phase_2,2,2,46,materials/images/redA1.png,Alpha,1,1,0.0887512,30,FALSE,11
11025,training_phase_2,2,2,47,materials/images/blueB2.png,Beta,0,1,0.8761379,30,FALSE,12
11025,training_phase_2,2,2,48,materials/images/blueB6.png,Beta,2,0,0.1283629,30,FALSE,12
11027,training_phase_1,2,1,1,materials/images/redA5.png,Alpha,1,1,2.3544025,11,FALSE,1
11027,training_phase_1,2,1,2,materials/images/blueB1.png,Beta,1,0,0.8836273,11,FALSE,1
11027,training_phase_1,2,1,3,materials/images/redA4.png,Alpha,1,1,0.6973831,11,FALSE,2
11027,training_phase_1,2,1,4,materials/images/redA2.png,Alpha,0,0,0.0236065,11,FALSE,2
11027,training_phase_1,2,1,5,materials/images/blueB3.png,Beta,0,1,0.4218441,11,FALSE,3
11027,training_phase_1,2,1,6,materials/images/blueB5.png,Beta,1,0,1.0952588,11,FALSE,3
11027,training_phase_1,2,1,7,materials/images/blueB6.png,Beta,1,0,2.7700962,11,FALSE,3
11027,training_phase_1,2,1,8,materials/images/redA3.png,Alpha,1,1,2.772262,11,FALSE,4
11027,training_phase_1,2,1,9,materials/images/redA1.png,Alpha,1,1,0.5545928,11,FALSE,5
11027,training_phase_1,2,1,10,materials/images/blueB4.png,Beta,0,1,0.2147554,11,FALSE,6
11027,training_phase_1,2,1,11,materials/images/blueB2.png,Beta,1,0,0.5413754,11,FALSE,6
11027,training_phase_1,2,1,12,materials/images/redA6.png,Alpha,0,0,0.9241099,11,FALSE,6
11027,training_phase_1,2,2,13,materials/images/blueB4.png,Beta,0,1,0.790048,11,FALSE,1
11027,training_phase_1,2,2,14,materials/images/blueB1.png,Beta,1,0,0.7716719,11,FALSE,1
11027,training_phase_1,2,2,15,materials/images/redA1.png,Alpha,1,1,0.8422821,11,FALSE,2
11027,training_phase_1,2,2,16,materials/images/redA4.png,Alpha,1,1,0.2231848,11,FALSE,3
11027,training_phase_1,2,2,17,materials/images/redA3.png,Alpha,1,1,0.6991597,11,FALSE,4
11027,training_phase_1,2,2,18,materials/images/blueB5.png,Beta,0,1,0.7567336,11,FALSE,5
11027,training_phase_1,2,2,19,materials/images/blueB2.png,Beta,1,0,1.3692216,11,FALSE,5
11027,training_phase_1,2,2,20,materials/images/blueB6.png,Beta,0,1,0.5259358,11,FALSE,6
11027,training_phase_1,2,2,21,materials/images/redA6.png,Alpha,0,0,0.0244494,11,FALSE,6
11027,training_phase_1,2,2,22,materials/images/blueB3.png,Beta,0,1,0.1573888,11,FALSE,7
11027,training_phase_1,2,2,23,materials/images/redA5.png,Alpha,0,0,3.8970445,11,FALSE,7
11027,training_phase_1,2,2,24,materials/images/redA2.png,Alpha,1,1,0.7611965,11,FALSE,8
11027,training_phase_1,2,3,25,materials/images/blueB3.png,Beta,0,1,2.5230934,11,FALSE,1
11027,training_phase_1,2,3,26,materials/images/blueB1.png,Beta,1,0,1.837251,11,FALSE,1
11027,training_phase_1,2,3,27,materials/images/redA1.png,Alpha,1,1,0.0243977,11,FALSE,2
11027,training_phase_1,2,3,28,materials/images/blueB2.png,Beta,1,0,2.176979,11,FALSE,2
11027,training_phase_1,2,3,29,materials/images/redA4.png,Alpha,1,1,0.0199782,11,FALSE,3
11027,training_phase_1,2,3,30,materials/images/redA2.png,Alpha,1,1,0.1908216,11,FALSE,4
11027,training_phase_1,2,3,31,materials/images/redA6.png,Alpha,0,0,0.0608626,11,FALSE,4
11027,training_phase_1,2,3,32,materials/images/blueB4.png,Beta,0,1,0.2722418,11,FALSE,5
11027,training_phase_1,2,3,33,materials/images/redA5.png,Alpha,0,0,0.6660592,11,FALSE,5
11027,training_phase_1,2,3,34,materials/images/blueB5.png,Beta,0,1,0.1376058,11,FALSE,6
11027,training_phase_1,2,3,35,materials/images/blueB6.png,Beta,0,1,0.4170646,11,FALSE,7
11027,training_phase_1,2,3,36,materials/images/redA3.png,Alpha,1,1,2.108219,11,FALSE,8
11027,training_phase_1,2,4,37,materials/images/redA6.png,Alpha,0,0,0.2770813,11,FALSE,0
11027,training_phase_1,2,4,38,materials/images/blueB2.png,Beta,0,1,0.4193311,11,FALSE,1
11027,training_phase_1,2,4,39,materials/images/blueB6.png,Beta,0,1,0.0490557,11,FALSE,2
11027,training_phase_1,2,4,40,materials/images/redA4.png,Alpha,1,1,0.0238845,11,FALSE,3
11027,training_phase_1,2,4,41,materials/images/blueB1.png,Beta,0,1,1.8980923,11,FALSE,4
11027,training_phase_1,2,4,42,materials/images/blueB5.png,Beta,0,1,4.3975294,11,FALSE,5
11027,training_phase_1,2,4,43,materials/images/blueB4.png,Beta,0,1,0.1694739,11,FALSE,6
11027,training_phase_1,2,4,44,materials/images/redA5.png,Alpha,1,1,2.5023822,11,FALSE,7
11027,training_phase_1,2,4,45,materials/images/blueB3.png,Beta,0,1,0.1840362,11,FALSE,8
11027,training_phase_1,2,4,46,materials/images/redA2.png,Alpha,1,1,0.0194882,11,FALSE,9
11027,training_phase_1,2,4,47,materials/images/redA3.png,Alpha,1,1,0.1978936,11,FALSE,10
11027,training_phase_1,2,4,48,materials/images/redA1.png,Alpha,1,1,0.9009083,11,TRUE,11
11027,test_phase,2,1,1,materials/images/redA6.png,Alpha,0,2,3.0186151,1,TRUE,1
11027,test_phase,2,1,2,materials/images/yGen4.png,test,0,2,0.6758266,1,TRUE,2
11027,test_phase,2,1,3,materials/images/blueB1.png,Beta,0,2,0.4573082,1,TRUE,3
11027,test_phase,2,1,4,materials/images/yGen5.png,test,0,2,0.0197862,1,TRUE,4
11027,test_phase,2,1,5,materials/images/redA1.png,Alpha,1,2,0.6190976,1,TRUE,5
11027,test_phase,2,1,6,materials/images/redA2.png,Alpha,1,2,1.2097121,1,TRUE,6
11027,test_phase,2,1,7,materials/images/yGen2.png,test,1,2,0.3983796,1,TRUE,7
11027,test_phase,2,1,8,materials/images/blueB5.png,Beta,0,2,0.2431472,1,TRUE,8
11027,test_phase,2,1,9,materials/images/blueB2.png,Beta,0,2,0.2766973,1,TRUE,9
11027,test_phase,2,1,10,materials/images/blueB6.png,Beta,0,2,1.4115362,1,TRUE,10
11027,test_phase,2,1,11,materials/images/blueB4.png,Beta,0,2,0.3287926,1,TRUE,11
11027,test_phase,2,1,12,materials/images/blueB3.png,Beta,0,2,0.0251551,1,TRUE,12
11027,test_phase,2,1,13,materials/images/redA5.png,Alpha,1,2,1.1167871,1,TRUE,13
11027,test_phase,2,1,14,materials/images/redA4.png,Alpha,1,2,0.9857484,1,TRUE,14
11027,test_phase,2,1,15,materials/images/redA3.png,Alpha,1,2,0.0250258,1,TRUE,15
11027,test_phase,2,1,16,materials/images/yGen3.png,test,0,2,4.7502495,1,TRUE,16
11027,test_phase,2,1,17,materials/images/yGen1.png,test,1,2,0.7921107,1,TRUE,17
11027,training_phase_2,2,1,1,materials/images/redA1.png,Alpha,1,1,0.594574,30,FALSE,1
11027,training_phase_2,2,1,2,materials/images/greenD4.png,Delta,0,0,0.4269382,30,FALSE,1
11027,training_phase_2,2,1,3,materials/images/blackG1.png,Gamma,1,0,0.5493049,30,FALSE,1
11027,training_phase_2,2,1,4,materials/images/redA2.png,Alpha,1,1,0.9089575,30,FALSE,2
11027,training_phase_2,2,1,5,materials/images/blueB4.png,Beta,0,1,0.3009026,30,FALSE,3
11027,training_phase_2,2,1,6,materials/images/redA6.png,Alpha,0,0,0.7854597,30,FALSE,3
11027,training_phase_2,2,1,7,materials/images/blackG6.png,Gamma,2,1,1.5983511,30,FALSE,4
11027,training_phase_2,2,1,8,materials/images/blackG4.png,Gamma,2,1,0.614644,30,FALSE,5
11027,training_phase_2,2,1,9,materials/images/blackG5.png,Gamma,2,1,0.4116534,30,FALSE,6
11027,training_phase_2,2,1,10,materials/images/greenD3.png,Delta,0,0,5.9581712,30,FALSE,6
11027,training_phase_2,2,1,11,materials/images/redA4.png,Alpha,1,1,0.1002711,30,FALSE,7
11027,training_phase_2,2,1,12,materials/images/blackG3.png,Gamma,1,0,2.617154,30,FALSE,7
11027,training_phase_2,2,1,13,materials/images/greenD2.png,Delta,0,0,2.2186127,30,FALSE,7
11027,training_phase_2,2,1,14,materials/images/blackG2.png,Gamma,1,0,0.8393729,30,FALSE,7
11027,training_phase_2,2,1,15,materials/images/redA5.png,Alpha,1,1,0.274758,30,FALSE,8
11027,training_phase_2,2,1,16,materials/images/blueB3.png,Beta,2,0,1.0907957,30,FALSE,8
11027,training_phase_2,2,1,17,materials/images/greenD6.png,Delta,2,0,0.412624,30,FALSE,8
11027,training_phase_2,2,1,18,materials/images/greenD1.png,Delta,0,0,4.8065938,30,FALSE,8
11027,training_phase_2,2,1,19,materials/images/blueB5.png,Beta,2,0,0.2579611,30,FALSE,8
11027,training_phase_2,2,1,20,materials/images/blueB6.png,Beta,2,0,0.4577798,30,FALSE,8
11027,training_phase_2,2,1,21,materials/images/blueB2.png,Beta,0,1,1.8428232,30,FALSE,9
11027,training_phase_2,2,1,22,materials/images/greenD5.png,Delta,3,1,35.0123654,30,FALSE,10
11027,training_phase_2,2,1,23,materials/images/blueB1.png,Beta,0,1,1.5183461,30,FALSE,11
11027,training_phase_2,2,1,24,materials/images/redA3.png,Alpha,1,1,0.1743667,30,FALSE,12
11027,training_phase_2,2,2,25,materials/images/blueB4.png,Beta,0,1,1.7154451,30,FALSE,1
11027,training_phase_2,2,2,26,materials/images/blueB5.png,Beta,3,0,1.1362414,30,FALSE,1
11027,training_phase_2,2,2,27,materials/images/redA3.png,Alpha,1,1,0.634696,30,FALSE,2
11027,training_phase_2,2,2,28,materials/images/blackG2.png,Gamma,0,0,0.5484126,30,FALSE,2
11027,training_phase_2,2,2,29,materials/images/blackG3.png,Gamma,2,1,2.0456622,30,FALSE,3
11027,training_phase_2,2,2,30,materials/images/redA6.png,Alpha,2,0,0.8692474,30,FALSE,3
11027,training_phase_2,2,2,31,materials/images/blackG4.png,Gamma,0,0,1.4448787,30,FALSE,3
11027,training_phase_2,2,2,32,materials/images/greenD1.png,Delta,0,0,0.7191671,30,FALSE,3
11027,training_phase_2,2,2,33,materials/images/greenD6.png,Delta,2,0,10.2395484,30,FALSE,3
11027,training_phase_2,2,2,34,materials/images/greenD2.png,Delta,0,0,16.4265802,30,FALSE,3
11027,training_phase_2,2,2,35,materials/images/redA5.png,Alpha,1,1,0.5496212,30,FALSE,4
11027,training_phase_2,2,2,36,materials/images/blueB1.png,Beta,0,1,0.8566233,30,FALSE,5
11027,training_phase_2,2,2,37,materials/images/blackG1.png,Gamma,1,0,0.3328286,30,FALSE,5
11027,training_phase_2,2,2,38,materials/images/blackG5.png,Gamma,0,0,2.2913427,30,FALSE,5
11027,training_phase_2,2,2,39,materials/images/blueB6.png,Beta,3,0,15.5959189,30,FALSE,5
11027,training_phase_2,2,2,40,materials/images/greenD5.png,Delta,3,1,2.2870268,30,FALSE,6
11027,training_phase_2,2,2,41,materials/images/greenD4.png,Delta,3,1,0.526766,30,FALSE,7
11027,training_phase_2,2,2,42,materials/images/greenD3.png,Delta,2,0,1.435773,30,FALSE,7
11027,training_phase_2,2,2,43,materials/images/redA4.png,Alpha,1,1,0.5423603,30,FALSE,8
11027,training_phase_2,2,2,44,materials/images/blackG6.png,Gamma,0,0,0.4146626,30,FALSE,8
11027,training_phase_2,2,2,45,materials/images/redA1.png,Alpha,1,1,0.0240392,30,FALSE,9
11027,training_phase_2,2,2,46,materials/images/blueB3.png,Beta,3,0,2.3127524,30,FALSE,9
11027,training_phase_2,2,2,47,materials/images/redA2.png,Alpha,1,1,0.3152072,30,FALSE,10
11027,training_phase_2,2,2,48,materials/images/blueB2.png,Beta,0,1,0.4928088,30,FALSE,11
11029,training_phase_1,2,1,1,materials/images/redA2.png,Alpha,1,1,2.1249937,11,FALSE,1
11029,training_phase_1,2,1,2,materials/images/blueB4.png,Beta,1,0,0.8324969,11,FALSE,1
11029,training_phase_1,2,1,3,materials/images/blueB3.png,Beta,0,1,0.963175,11,FALSE,2
11029,training_phase_1,2,1,4,materials/images/redA5.png,Alpha,0,0,0.413913,11,FALSE,2
11029,training_phase_1,2,1,5,materials/images/redA3.png,Alpha,1,1,0.2354045,11,FALSE,3
11029,training_phase_1,2,1,6,materials/images/redA4.png,Alpha,1,1,0.4286733,11,FALSE,4
11029,training_phase_1,2,1,7,materials/images/blueB1.png,Beta,1,0,1.0827234,11,FALSE,4
11029,training_phase_1,2,1,8,materials/images/redA1.png,Alpha,1,1,0.0921122,11,FALSE,5
11029,training_phase_1,2,1,9,materials/images/blueB6.png,Beta,0,1,0.2380419,11,FALSE,6
11029,training_phase_1,2,1,10,materials/images/blueB2.png,Beta,0,1,0.2528513,11,FALSE,7
11029,training_phase_1,2,1,11,materials/images/redA6.png,Alpha,0,0,0.7558216,11,FALSE,7
11029,training_phase_1,2,1,12,materials/images/blueB5.png,Beta,0,1,0.6896785,11,FALSE,8
11029,training_phase_1,2,2,13,materials/images/redA6.png,Alpha,0,0,3.2064473,11,FALSE,0
11029,training_phase_1,2,2,14,materials/images/redA2.png,Alpha,1,1,0.1168523,11,FALSE,1
11029,training_phase_1,2,2,15,materials/images/redA3.png,Alpha,0,0,1.8878117,11,FALSE,1
11029,training_phase_1,2,2,16,materials/images/redA5.png,Alpha,0,0,0.2263806,11,FALSE,1
11029,training_phase_1,2,2,17,materials/images/redA4.png,Alpha,1,1,1.6454394,11,FALSE,2
11029,training_phase_1,2,2,18,materials/images/blueB2.png,Beta,1,0,3.4269899,11,FALSE,2
11029,training_phase_1,2,2,19,materials/images/redA1.png,Alpha,1,1,0.0317135,11,FALSE,3
11029,training_phase_1,2,2,20,materials/images/blueB3.png,Beta,0,1,0.7494221,11,FALSE,4
11029,training_phase_1,2,2,21,materials/images/blueB6.png,Beta,0,1,0.8060857,11,FALSE,5
11029,training_phase_1,2,2,22,materials/images/blueB4.png,Beta,0,1,1.5867282,11,FALSE,6
11029,training_phase_1,2,2,23,materials/images/blueB1.png,Beta,1,0,0.3982011,11,FALSE,6
11029,training_phase_1,2,2,24,materials/images/blueB5.png,Beta,0,1,2.5336082,11,FALSE,7
11029,training_phase_1,2,3,25,materials/images/blueB5.png,Beta,0,1,0.1792896,11,FALSE,1
11029,training_phase_1,2,3,26,materials/images/redA5.png,Alpha,1,1,0.5520762,11,FALSE,2
11029,training_phase_1,2,3,27,materials/images/redA1.png,Alpha,1,1,0.510056,11,FALSE,3
11029,training_phase_1,2,3,28,materials/images/blueB1.png,Beta,1,0,0.3966473,11,FALSE,3
11029,training_phase_1,2,3,29,materials/images/blueB3.png,Beta,0,1,0.6187113,11,FALSE,4
11029,training_phase_1,2,3,30,materials/images/redA6.png,Alpha,0,0,5.4965279,11,FALSE,4
11029,training_phase_1,2,3,31,materials/images/redA2.png,Alpha,1,1,0.1153913,11,FALSE,5
11029,training_phase_1,2,3,32,materials/images/blueB6.png,Beta,0,1,0.2005957,11,FALSE,6
11029,training_phase_1,2,3,33,materials/images/blueB2.png,Beta,1,0,2.5607687,11,FALSE,6
11029,training_phase_1,2,3,34,materials/images/redA4.png,Alpha,1,1,9.7162414,11,FALSE,7
11029,training_phase_1,2,3,35,materials/images/redA3.png,Alpha,0,0,2.3017745,11,FALSE,7
11029,training_phase_1,2,3,36,materials/images/blueB4.png,Beta,0,1,0.4226252,11,FALSE,8
11029,training_phase_1,2,4,37,materials/images/redA5.png,Alpha,1,1,0.0228342,11,FALSE,1
11029,training_phase_1,2,4,38,materials/images/blueB2.png,Beta,0,1,0.5898487,11,FALSE,2
11029,training_phase_1,2,4,39,materials/images/redA3.png,Alpha,1,1,0.7006836,11,FALSE,3
11029,training_phase_1,2,4,40,materials/images/blueB3.png,Beta,0,1,0.0188782,11,FALSE,4
11029,training_phase_1,2,4,41,materials/images/blueB4.png,Beta,1,0,0.0229318,11,FALSE,4
11029,training_phase_1,2,4,42,materials/images/blueB5.png,Beta,0,1,0.7571517,11,FALSE,5
11029,training_phase_1,2,4,43,materials/images/redA2.png,Alpha,1,1,1.7024069,11,FALSE,6
11029,training_phase_1,2,4,44,materials/images/redA4.png,Alpha,0,0,0.6163516,11,FALSE,6
11029,training_phase_1,2,4,45,materials/images/blueB6.png,Beta,0,1,0.2490061,11,FALSE,7
11029,training_phase_1,2,4,46,materials/images/redA1.png,Alpha,1,1,0.6742632,11,FALSE,8
11029,training_phase_1,2,4,47,materials/images/redA6.png,Alpha,0,0,11.6740955,11,FALSE,8
11029,training_phase_1,2,4,48,materials/images/blueB1.png,Beta,0,1,1.555023,11,FALSE,9
11029,training_phase_1,2,5,49,materials/images/blueB1.png,Beta,0,1,0.0230621,11,FALSE,1
11029,training_phase_1,2,5,50,materials/images/blueB5.png,Beta,0,1,0.0181241,11,FALSE,2
11029,training_phase_1,2,5,51,materials/images/redA5.png,Alpha,0,0,3.734331,11,FALSE,2
11029,training_phase_1,2,5,52,materials/images/blueB3.png,Beta,1,0,0.4269202,11,FALSE,2
11029,training_phase_1,2,5,53,materials/images/blueB6.png,Beta,0,1,2.0620845,11,FALSE,3
11029,training_phase_1,2,5,54,materials/images/redA3.png,Alpha,1,1,0.4757722,11,FALSE,4
11029,training_phase_1,2,5,55,materials/images/redA4.png,Alpha,1,1,0.0439846,11,FALSE,5
11029,training_phase_1,2,5,56,materials/images/blueB4.png,Beta,0,1,0.7738491,11,FALSE,6
