pnum,phase_id,condition,block_data,trial_num,stim,correct_category,response,hit,rt,criterian,met_criterian,num_correct_in_block
11007,training_phase_1,2,1,1,materials/images/redA3.png,Alpha,Alpha,TRUE,1.6903755,11,FALSE,1
11007,training_phase_1,2,1,2,materials/images/blueB2.png,Beta,Beta,TRUE,0.6078851,11,FALSE,2
11007,training_phase_1,2,1,3,materials/images/blueB4.png,Beta,Alpha,FALSE,1.7981769,11,FALSE,2
11007,training_phase_1,2,1,4,materials/images/blueB1.png,Beta,Alpha,FALSE,0.2648727,11,FALSE,2
11007,training_phase_1,2,1,5,materials/images/blueB6.png,Beta,Beta,TRUE,0.305936701,11,FALSE,3
11007,training_phase_1,2,1,6,materials/images/redA5.png,Alpha,Alpha,TRUE,0.3449561,11,FALSE,4
11007,training_phase_1,2,1,7,materials/images/redA1.png,Alpha,Alpha,TRUE,0.9305615,11,FALSE,5
11007,training_phase_1,2,1,8,materials/images/redA6.png,Alpha,Beta,FALSE,0.1221,11,FALSE,5
11007,training_phase_1,2,1,9,materials/images/blueB3.png,Beta,Alpha,FALSE,0.5593301,11,FALSE,5
11007,training_phase_1,2,1,10,materials/images/redA2.png,Alpha,Alpha,TRUE,0.019197,11,FALSE,6
11007,training_phase_1,2,1,11,materials/images/redA4.png,Alpha,Alpha,TRUE,1.341006,11,FALSE,7
11007,training_phase_1,2,1,12,materials/images/blueB5.png,Beta,Beta,TRUE,0.206974399,11,FALSE,8
11007,training_phase_1,2,2,13,materials/images/redA2.png,Alpha,Alpha,TRUE,0.3731839,11,FALSE,1
11007,training_phase_1,2,2,14,materials/images/redA5.png,Alpha,Beta,FALSE,0.6750901,11,FALSE,1
11007,training_phase_1,2,2,15,materials/images/blueB1.png,Beta,Alpha,FALSE,0.8170397,11,FALSE,1
11007,training_phase_1,2,2,16,materials/images/blueB4.png,Beta,Alpha,FALSE,0.2555295,11,FALSE,1
11007,training_phase_1,2,2,17,materials/images/redA4.png,Alpha,Alpha,TRUE,0.2293707,11,FALSE,2
11007,training_phase_1,2,2,18,materials/images/blueB5.png,Beta,Beta,TRUE,0.0873804,11,FALSE,3
11007,training_phase_1,2,2,19,materials/images/redA3.png,Alpha,Alpha,TRUE,0.1605196,11,FALSE,4
11007,training_phase_1,2,2,20,materials/images/blueB2.png,Beta,Beta,TRUE,2.547796,11,FALSE,5
11007,training_phase_1,2,2,21,materials/images/redA1.png,Alpha,Alpha,TRUE,0.4540049,11,FALSE,6
11007,training_phase_1,2,2,22,materials/images/redA6.png,Alpha,Beta,FALSE,0.2330012,11,FALSE,6
11007,training_phase_1,2,2,23,materials/images/blueB3.png,Beta,Beta,TRUE,0.1647313,11,FALSE,7
11007,training_phase_1,2,2,24,materials/images/blueB6.png,Beta,Beta,TRUE,0.091341499,11,FALSE,8
11007,training_phase_1,2,3,25,materials/images/redA2.png,Alpha,Alpha,TRUE,0.1758649,11,FALSE,1
11007,training_phase_1,2,3,26,materials/images/blueB5.png,Beta,Alpha,FALSE,0.0236855,11,FALSE,1
11007,training_phase_1,2,3,27,materials/images/redA6.png,Alpha,Alpha,TRUE,0.5580215,11,FALSE,2
11007,training_phase_1,2,3,28,materials/images/redA4.png,Alpha,Alpha,TRUE,0.556525299,11,FALSE,3
11007,training_phase_1,2,3,29,materials/images/blueB4.png,Beta,Beta,TRUE,0.019083399,11,FALSE,4
11007,training_phase_1,2,3,30,materials/images/redA3.png,Alpha,Alpha,TRUE,0.3594927,11,FALSE,5
11007,training_phase_1,2,3,31,materials/images/redA5.png,Alpha,Alpha,TRUE,0.6582367,11,FALSE,6
11007,training_phase_1,2,3,32,materials/images/redA1.png,Alpha,Alpha,TRUE,0.0190306,11,FALSE,7
11007,training_phase_1,2,3,33,materials/images/blueB6.png,Beta,Beta,TRUE,0.0195616,11,FALSE,8
11007,training_phase_1,2,3,34,materials/images/blueB1.png,Beta,Beta,TRUE,0.0612195,11,FALSE,9
11007,training_phase_1,2,3,35,materials/images/blueB3.png,Beta,Beta,TRUE,0.0188437,11,FALSE,10
11007,training_phase_1,2,3,36,materials/images/blueB2.png,Beta,Beta,TRUE,0.901126401,11,TRUE,11
11007,test_phase,2,1,1,materials/images/yGen2.png,test,Beta,gen,0.7376506,1,TRUE,1
11007,test_phase,2,1,2,materials/images/redA6.png,Alpha,Beta,gen,0.786243999,1,TRUE,2
11007,test_phase,2,1,3,materials/images/redA4.png,Alpha,Alpha,gen,0.0240893,1,TRUE,3
11007,test_phase,2,1,4,materials/images/blueB6.png,Beta,Beta,gen,1.1711667,1,TRUE,4
11007,test_phase,2,1,5,materials/images/yGen1.png,test,Alpha,gen,0.4940181,1,TRUE,5
11007,test_phase,2,1,6,materials/images/blueB5.png,Beta,Beta,gen,0.2686638,1,TRUE,6
11007,test_phase,2,1,7,materials/images/blueB4.png,Beta,Beta,gen,0.210750001,1,TRUE,7
11007,test_phase,2,1,8,materials/images/redA5.png,Alpha,Alpha,gen,0.2270323,1,TRUE,8
11007,test_phase,2,1,9,materials/images/redA1.png,Alpha,Alpha,gen,0.0238491,1,TRUE,9
11007,test_phase,2,1,10,materials/images/blueB2.png,Beta,Beta,gen,0.018921101,1,TRUE,10
11007,test_phase,2,1,11,materials/images/redA2.png,Alpha,Alpha,gen,0.4415816,1,TRUE,11
11007,test_phase,2,1,12,materials/images/blueB3.png,Beta,Beta,gen,0.0243123,1,TRUE,12
11007,test_phase,2,1,13,materials/images/yGen5.png,test,Beta,gen,0.8413542,1,TRUE,13
11007,test_phase,2,1,14,materials/images/redA3.png,Alpha,Alpha,gen,0.4181367,1,TRUE,14
11007,test_phase,2,1,15,materials/images/yGen4.png,test,Beta,gen,0.023581999,1,TRUE,15
11007,test_phase,2,1,16,materials/images/blueB1.png,Beta,Beta,gen,0.220537,1,TRUE,16
11007,test_phase,2,1,17,materials/images/yGen3.png,test,Beta,gen,0.2726694,1,TRUE,17
11007,training_phase_2,2,1,1,materials/images/blueB3.png,Beta,Beta,TRUE,0.491306299,30,FALSE,1
11007,training_phase_2,2,1,2,materials/images/blueB1.png,Beta,Beta,TRUE,0.0238711,30,FALSE,2
11007,training_phase_2,2,1,3,materials/images/redA5.png,Alpha,Beta,FALSE,0.558971999,30,FALSE,2
11007,training_phase_2,2,1,4,materials/images/blackG3.png,Gamma,Beta,FALSE,0.419641401,30,FALSE,2
11007,training_phase_2,2,1,5,materials/images/redA3.png,Alpha,Alpha,TRUE,0.2836577,30,FALSE,3
11007,training_phase_2,2,1,6,materials/images/blackG1.png,Gamma,Gamma,TRUE,0.254202001,30,FALSE,4
11007,training_phase_2,2,1,7,materials/images/redA1.png,Alpha,Alpha,TRUE,0.018375601,30,FALSE,5
11007,training_phase_2,2,1,8,materials/images/redA2.png,Alpha,Alpha,TRUE,0.0230976,30,FALSE,6
11007,training_phase_2,2,1,9,materials/images/redA6.png,Alpha,Gamma,FALSE,0.1320943,30,FALSE,6
11007,training_phase_2,2,1,10,materials/images/blackG4.png,Gamma,Gamma,TRUE,0.3543574,30,FALSE,7
11007,training_phase_2,2,1,11,materials/images/greenD1.png,Delta,Gamma,FALSE,0.2658456,30,FALSE,7
11007,training_phase_2,2,1,12,materials/images/redA4.png,Alpha,Gamma,FALSE,0.5903512,30,FALSE,7
11007,training_phase_2,2,1,13,materials/images/blueB5.png,Beta,Gamma,FALSE,0.787241,30,FALSE,7
11007,training_phase_2,2,1,14,materials/images/greenD3.png,Delta,Beta,FALSE,0.508304,30,FALSE,7
11007,training_phase_2,2,1,15,materials/images/blackG5.png,Gamma,Gamma,TRUE,0.5326866,30,FALSE,8
11007,training_phase_2,2,1,16,materials/images/blackG2.png,Gamma,Delta,FALSE,0.3497431,30,FALSE,8
11007,training_phase_2,2,1,17,materials/images/greenD5.png,Delta,Delta,TRUE,0.019348199,30,FALSE,9
11007,training_phase_2,2,1,18,materials/images/greenD4.png,Delta,Delta,TRUE,0.493790899,30,FALSE,10
11007,training_phase_2,2,1,19,materials/images/greenD2.png,Delta,Delta,TRUE,0.5211175,30,FALSE,11
11007,training_phase_2,2,1,20,materials/images/blackG6.png,Gamma,Gamma,TRUE,1.4313182,30,FALSE,12
11007,training_phase_2,2,1,21,materials/images/greenD6.png,Delta,Beta,FALSE,0.9253124,30,FALSE,12
11007,training_phase_2,2,1,22,materials/images/blueB4.png,Beta,Beta,TRUE,0.519899501,30,FALSE,13
11007,training_phase_2,2,1,23,materials/images/blueB6.png,Beta,Beta,TRUE,1.7275113,30,FALSE,14
11007,training_phase_2,2,1,24,materials/images/blueB2.png,Beta,Beta,TRUE,0.6499117,30,FALSE,15
11007,training_phase_2,2,2,25,materials/images/blackG4.png,Gamma,Gamma,TRUE,1.177243399,30,FALSE,1
11007,training_phase_2,2,2,26,materials/images/blueB5.png,Beta,Gamma,FALSE,0.1154872,30,FALSE,1
11007,training_phase_2,2,2,27,materials/images/blueB6.png,Beta,Beta,TRUE,1.3436682,30,FALSE,2
11007,training_phase_2,2,2,28,materials/images/redA6.png,Alpha,Alpha,TRUE,1.218712,30,FALSE,3
11007,training_phase_2,2,2,29,materials/images/greenD3.png,Delta,Delta,TRUE,1.236937099,30,FALSE,4
11007,training_phase_2,2,2,30,materials/images/redA3.png,Alpha,Alpha,TRUE,0.420505,30,FALSE,5
11007,training_phase_2,2,2,31,materials/images/redA4.png,Alpha,Alpha,TRUE,0.3403774,30,FALSE,6
11007,training_phase_2,2,2,32,materials/images/blueB4.png,Beta,Gamma,FALSE,2.3112366,30,FALSE,6
11007,training_phase_2,2,2,33,materials/images/blackG5.png,Gamma,Gamma,TRUE,0.0360592,30,FALSE,7
11007,training_phase_2,2,2,34,materials/images/blackG1.png,Gamma,Delta,FALSE,1.3692637,30,FALSE,7
11007,training_phase_2,2,2,35,materials/images/greenD1.png,Delta,Delta,TRUE,0.239739,30,FALSE,8
11007,training_phase_2,2,2,36,materials/images/greenD5.png,Delta,Delta,TRUE,0.078872999,30,FALSE,9
11007,training_phase_2,2,2,37,materials/images/redA2.png,Alpha,Alpha,TRUE,0.849465501,30,FALSE,10
11007,training_phase_2,2,2,38,materials/images/greenD4.png,Delta,Delta,TRUE,0.2523791,30,FALSE,11
11007,training_phase_2,2,2,39,materials/images/blackG3.png,Gamma,Beta,FALSE,1.0824038,30,FALSE,11
11007,training_phase_2,2,2,40,materials/images/greenD6.png,Delta,Delta,TRUE,0.239479,30,FALSE,12
11007,training_phase_2,2,2,41,materials/images/blackG2.png,Gamma,Gamma,TRUE,0.386581001,30,FALSE,13
11007,training_phase_2,2,2,42,materials/images/redA5.png,Alpha,Beta,FALSE,0.843215999,30,FALSE,13
11007,training_phase_2,2,2,43,materials/images/redA1.png,Alpha,Alpha,TRUE,0.1049718,30,FALSE,14
11007,training_phase_2,2,2,44,materials/images/blueB3.png,Beta,Delta,FALSE,3.7389651,30,FALSE,14
11007,training_phase_2,2,2,45,materials/images/blueB2.png,Beta,Beta,TRUE,0.216762,30,FALSE,15
11007,training_phase_2,2,2,46,materials/images/blueB1.png,Beta,Beta,TRUE,0.375746801,30,FALSE,16
11007,training_phase_2,2,2,47,materials/images/blackG6.png,Gamma,Gamma,TRUE,0.3694026,30,FALSE,17
11007,training_phase_2,2,2,48,materials/images/greenD2.png,Delta,Beta,FALSE,0.8205965,30,FALSE,17
11008,training_phase_1,1,1,1,materials/images/redA2.png,Alpha,Alpha,TRUE,1.5336674,11,FALSE,1
11008,training_phase_1,1,1,2,materials/images/redA1.png,Alpha,Alpha,TRUE,1.3831178,11,FALSE,2
11008,training_phase_1,1,1,3,materials/images/redA6.png,Alpha,Beta,FALSE,0.252389399,11,FALSE,2
11008,training_phase_1,1,1,4,materials/images/blueB2.png,Beta,Alpha,FALSE,0.3481977,11,FALSE,2
11008,training_phase_1,1,1,5,materials/images/redA3.png,Alpha,Alpha,TRUE,1.312043,11,FALSE,3
11008,training_phase_1,1,1,6,materials/images/blueB4.png,Beta,Beta,TRUE,0.0231279,11,FALSE,4
11008,training_phase_1,1,1,7,materials/images/redA5.png,Alpha,Alpha,TRUE,0.540248,11,FALSE,5
11008,training_phase_1,1,1,8,materials/images/blueB1.png,Beta,Beta,TRUE,0.2030122,11,FALSE,6
11008,training_phase_1,1,1,9,materials/images/blueB5.png,Beta,Beta,TRUE,0.022549001,11,FALSE,7
11008,training_phase_1,1,1,10,materials/images/blueB6.png,Beta,Alpha,FALSE,0.017880999,11,FALSE,7
11008,training_phase_1,1,1,11,materials/images/redA4.png,Alpha,Alpha,TRUE,0.0686093,11,FALSE,8
11008,training_phase_1,1,1,12,materials/images/blueB3.png,Beta,Alpha,FALSE,0.0229391,11,FALSE,8
11008,training_phase_1,1,2,13,materials/images/redA1.png,Alpha,Beta,FALSE,0.1640502,11,FALSE,0
11008,training_phase_1,1,2,14,materials/images/redA6.png,Alpha,Beta,FALSE,1.3344666,11,FALSE,0
11008,training_phase_1,1,2,15,materials/images/redA2.png,Alpha,Alpha,TRUE,0.9163216,11,FALSE,1
11008,training_phase_1,1,2,16,materials/images/blueB3.png,Beta,Beta,TRUE,0.4600182,11,FALSE,2
11008,training_phase_1,1,2,17,materials/images/redA5.png,Alpha,Beta,FALSE,0.2884833,11,FALSE,2
11008,training_phase_1,1,2,18,materials/images/blueB2.png,Beta,Beta,TRUE,0.3411492,11,FALSE,3
11008,training_phase_1,1,2,19,materials/images/blueB5.png,Beta,Alpha,FALSE,0.6592735,11,FALSE,3
11008,training_phase_1,1,2,20,materials/images/blueB4.png,Beta,Alpha,FALSE,0.1692547,11,FALSE,3
11008,training_phase_1,1,2,21,materials/images/blueB6.png,Beta,Beta,TRUE,0.251999101,11,FALSE,4
11008,training_phase_1,1,2,22,materials/images/redA3.png,Alpha,Alpha,TRUE,0.0183735,11,FALSE,5
11008,training_phase_1,1,2,23,materials/images/blueB1.png,Beta,Beta,TRUE,1.3654346,11,FALSE,6
11008,training_phase_1,1,2,24,materials/images/redA4.png,Alpha,Alpha,TRUE,0.0427611,11,FALSE,7
11008,training_phase_1,1,3,25,materials/images/blueB6.png,Beta,Beta,TRUE,0.5358646,11,FALSE,1
11008,training_phase_1,1,3,26,materials/images/blueB3.png,Beta,Alpha,FALSE,0.365404801,11,FALSE,1
11008,training_phase_1,1,3,27,materials/images/redA4.png,Alpha,Alpha,TRUE,0.3125626,11,FALSE,2
11008,training_phase_1,1,3,28,materials/images/redA1.png,Alpha,Alpha,TRUE,0.7328641,11,FALSE,3
11008,training_phase_1,1,3,29,materials/images/blueB2.png,Beta,Beta,TRUE,0.0232845,11,FALSE,4
11008,training_phase_1,1,3,30,materials/images/redA5.png,Alpha,Alpha,TRUE,0.018624799,11,FALSE,5
11008,training_phase_1,1,3,31,materials/images/blueB4.png,Beta,Alpha,FALSE,0.022921,11,FALSE,5
11008,training_phase_1,1,3,32,materials/images/blueB1.png,Beta,Beta,TRUE,0.1063178,11,FALSE,6
11008,training_phase_1,1,3,33,materials/images/blueB5.png,Beta,Beta,TRUE,0.149013,11,FALSE,7
11008,training_phase_1,1,3,34,materials/images/redA2.png,Alpha,Alpha,TRUE,0.3677564,11,FALSE,8
11008,training_phase_1,1,3,35,materials/images/redA6.png,Alpha,Beta,FALSE,0.1374982,11,FALSE,8
11008,training_phase_1,1,3,36,materials/images/redA3.png,Alpha,Alpha,TRUE,0.0231234,11,FALSE,9
11008,training_phase_1,1,4,37,materials/images/blueB6.png,Beta,Beta,TRUE,0.1551436,11,FALSE,1
11008,training_phase_1,1,4,38,materials/images/blueB3.png,Beta,Beta,TRUE,0.0183286,11,FALSE,2
11008,training_phase_1,1,4,39,materials/images/blueB1.png,Beta,Beta,TRUE,0.3078634,11,FALSE,3
11008,training_phase_1,1,4,40,materials/images/redA2.png,Alpha,Alpha,TRUE,0.0189773,11,FALSE,4
11008,training_phase_1,1,4,41,materials/images/blueB4.png,Beta,Beta,TRUE,0.5415907,11,FALSE,5
11008,training_phase_1,1,4,42,materials/images/redA3.png,Alpha,Alpha,TRUE,0.0230969,11,FALSE,6
11008,training_phase_1,1,4,43,materials/images/redA6.png,Alpha,Beta,FALSE,0.2212717,11,FALSE,6
11008,training_phase_1,1,4,44,materials/images/redA1.png,Alpha,Alpha,TRUE,0.144670101,11,FALSE,7
11008,training_phase_1,1,4,45,materials/images/redA4.png,Alpha,Beta,FALSE,0.1957135,11,FALSE,7
11008,training_phase_1,1,4,46,materials/images/blueB5.png,Beta,Beta,TRUE,0.2214265,11,FALSE,8
11008,training_phase_1,1,4,47,materials/images/redA5.png,Alpha,Alpha,TRUE,0.150778,11,FALSE,9
11008,training_phase_1,1,4,48,materials/images/blueB2.png,Beta,Beta,TRUE,0.0678041,11,FALSE,10
11008,training_phase_1,1,5,49,materials/images/blueB1.png,Beta,Beta,TRUE,0.0240141,11,FALSE,1
11008,training_phase_1,1,5,50,materials/images/redA6.png,Alpha,Alpha,TRUE,0.6483336,11,FALSE,2
11008,training_phase_1,1,5,51,materials/images/blueB6.png,Beta,Beta,TRUE,0.2073401,11,FALSE,3
11008,training_phase_1,1,5,52,materials/images/redA2.png,Alpha,Alpha,TRUE,0.2404176,11,FALSE,4
11008,training_phase_1,1,5,53,materials/images/redA4.png,Alpha,Beta,FALSE,1.812604,11,FALSE,4
11008,training_phase_1,1,5,54,materials/images/blueB5.png,Beta,Beta,TRUE,0.4680391,11,FALSE,5
11008,training_phase_1,1,5,55,materials/images/blueB3.png,Beta,Beta,TRUE,0.172502601,11,FALSE,6
11008,training_phase_1,1,5,56,materials/images/redA5.png,Alpha,Beta,FALSE,0.0183615,11,FALSE,6
11008,training_phase_1,1,5,57,materials/images/blueB2.png,Beta,Beta,TRUE,0.0227969,11,FALSE,7
11008,training_phase_1,1,5,58,materials/images/redA3.png,Alpha,Alpha,TRUE,0.8511674,11,FALSE,8
11008,training_phase_1,1,5,59,materials/images/redA1.png,Alpha,Alpha,TRUE,0.1673058,11,FALSE,9
11008,training_phase_1,1,5,60,materials/images/blueB4.png,Beta,Beta,TRUE,0.3284008,11,FALSE,10
11008,training_phase_1,1,6,61,materials/images/redA5.png,Alpha,Alpha,TRUE,0.6576547,11,FALSE,1
11008,training_phase_1,1,6,62,materials/images/blueB6.png,Beta,Beta,TRUE,0.018552399,11,FALSE,2
11008,training_phase_1,1,6,63,materials/images/blueB4.png,Beta,Beta,TRUE,0.0186681,11,FALSE,3
11008,training_phase_1,1,6,64,materials/images/blueB1.png,Beta,Beta,TRUE,0.0238905,11,FALSE,4
11008,training_phase_1,1,6,65,materials/images/blueB3.png,Beta,Beta,TRUE,0.043080499,11,FALSE,5
11008,training_phase_1,1,6,66,materials/images/redA4.png,Alpha,Alpha,TRUE,0.0537521,11,FALSE,6
11008,training_phase_1,1,6,67,materials/images/blueB5.png,Beta,Beta,TRUE,0.3964708,11,FALSE,7
11008,training_phase_1,1,6,68,materials/images/redA3.png,Alpha,Beta,FALSE,0.0181732,11,FALSE,7
11008,training_phase_1,1,6,69,materials/images/redA2.png,Alpha,Beta,FALSE,0.1245848,11,FALSE,7
11008,training_phase_1,1,6,70,materials/images/blueB2.png,Beta,Beta,TRUE,0.176604,11,FALSE,8
11008,training_phase_1,1,6,71,materials/images/redA6.png,Alpha,Alpha,TRUE,0.1881106,11,FALSE,9
11008,training_phase_1,1,6,72,materials/images/redA1.png,Alpha,Alpha,TRUE,0.0259253,11,FALSE,10
11008,training_phase_1,1,7,73,materials/images/blueB6.png,Beta,Beta,TRUE,0.568415601,11,FALSE,1
11008,training_phase_1,1,7,74,materials/images/blueB4.png,Beta,Alpha,FALSE,0.0179953,11,FALSE,1
11008,training_phase_1,1,7,75,materials/images/redA3.png,Alpha,Alpha,TRUE,0.072204201,11,FALSE,2
11008,training_phase_1,1,7,76,materials/images/redA6.png,Alpha,Beta,FALSE,0.191066201,11,FALSE,2
11008,training_phase_1,1,7,77,materials/images/blueB1.png,Beta,Beta,TRUE,0.0228468,11,FALSE,3
11008,training_phase_1,1,7,78,materials/images/blueB2.png,Beta,Beta,TRUE,0.0179371,11,FALSE,4
11008,training_phase_1,1,7,79,materials/images/blueB5.png,Beta,Alpha,FALSE,0.0187563,11,FALSE,4
11008,training_phase_1,1,7,80,materials/images/redA5.png,Alpha,Alpha,TRUE,0.022514,11,FALSE,5
11008,training_phase_1,1,7,81,materials/images/redA4.png,Alpha,Alpha,TRUE,0.332612799,11,FALSE,6
11008,training_phase_1,1,7,82,materials/images/redA2.png,Alpha,Beta,FALSE,0.4093557,11,FALSE,6
11008,training_phase_1,1,7,83,materials/images/redA1.png,Alpha,Alpha,TRUE,0.1026648,11,FALSE,7
11008,training_phase_1,1,7,84,materials/images/blueB3.png,Beta,Beta,TRUE,0.6123879,11,FALSE,8
11008,training_phase_1,1,8,85,materials/images/redA1.png,Alpha,Alpha,TRUE,0.2256324,11,FALSE,1
11008,training_phase_1,1,8,86,materials/images/blueB6.png,Beta,Beta,TRUE,0.023593199,11,FALSE,2
11008,training_phase_1,1,8,87,materials/images/blueB3.png,Beta,Beta,TRUE,0.972843001,11,FALSE,3
11008,training_phase_1,1,8,88,materials/images/blueB2.png,Beta,Beta,TRUE,1.1294769,11,FALSE,4
11008,training_phase_1,1,8,89,materials/images/redA5.png,Alpha,Alpha,TRUE,1.464999099,11,FALSE,5
11008,training_phase_1,1,8,90,materials/images/blueB1.png,Beta,Beta,TRUE,0.9606266,11,FALSE,6
11008,training_phase_1,1,8,91,materials/images/redA2.png,Alpha,Alpha,TRUE,0.0182279,11,FALSE,7
11008,training_phase_1,1,8,92,materials/images/redA4.png,Alpha,Alpha,TRUE,0.2804513,11,FALSE,8
11008,training_phase_1,1,8,93,materials/images/redA3.png,Alpha,Alpha,TRUE,0.5264529,11,FALSE,9
11008,training_phase_1,1,8,94,materials/images/blueB4.png,Beta,Beta,TRUE,0.7342034,11,FALSE,10
11008,training_phase_1,1,8,95,materials/images/redA6.png,Alpha,Beta,FALSE,0.0420945,11,FALSE,10
11008,training_phase_1,1,8,96,materials/images/blueB5.png,Beta,Beta,TRUE,0.0225726,11,TRUE,11
11008,test_phase,1,1,1,materials/images/blueB6.png,Beta,Beta,gen,0.0227583,1,TRUE,1
11008,test_phase,1,1,2,materials/images/yGen4.png,test,Beta,gen,0.903645201,1,TRUE,2
11008,test_phase,1,1,3,materials/images/redA6.png,Alpha,Alpha,gen,0.7500667,1,TRUE,3
11008,test_phase,1,1,4,materials/images/redA5.png,Alpha,Alpha,gen,1.4773925,1,TRUE,4
11008,test_phase,1,1,5,materials/images/blueB3.png,Beta,Beta,gen,0.0230612,1,TRUE,5
11008,test_phase,1,1,6,materials/images/redA4.png,Alpha,Beta,gen,0.968597,1,TRUE,6
11008,test_phase,1,1,7,materials/images/yGen3.png,test,Beta,gen,0.4737148,1,TRUE,7
11008,test_phase,1,1,8,materials/images/blueB5.png,Beta,Beta,gen,0.0185517,1,TRUE,8
11008,test_phase,1,1,9,materials/images/blueB4.png,Beta,Alpha,gen,0.3869838,1,TRUE,9
11008,test_phase,1,1,10,materials/images/yGen2.png,test,Alpha,gen,0.4943866,1,TRUE,10
11008,test_phase,1,1,11,materials/images/blueB1.png,Beta,Beta,gen,0.0297887,1,TRUE,11
11008,test_phase,1,1,12,materials/images/redA1.png,Alpha,Alpha,gen,2.162218,1,TRUE,12
11008,test_phase,1,1,13,materials/images/redA3.png,Alpha,Alpha,gen,0.5438293,1,TRUE,13
11008,test_phase,1,1,14,materials/images/yGen5.png,test,Beta,gen,0.2766108,1,TRUE,14
11008,test_phase,1,1,15,materials/images/yGen1.png,test,Beta,gen,0.0772805,1,TRUE,15
11008,test_phase,1,1,16,materials/images/blueB2.png,Beta,Beta,gen,1.8890881,1,TRUE,16
11008,test_phase,1,1,17,materials/images/redA2.png,Alpha,Alpha,gen,0.0181256,1,TRUE,17
11008,training_phase_2,1,1,1,materials/images/blackG3.png,Gamma,Alpha,FALSE,2.166901399,30,FALSE,0
11008,training_phase_2,1,1,2,materials/images/redA1.png,Alpha,Delta,FALSE,0.4354261,30,FALSE,0
11008,training_phase_2,1,1,3,materials/images/blueB5.png,Beta,Beta,TRUE,0.0227181,30,FALSE,1
11008,training_phase_2,1,1,4,materials/images/blackG1.png,Gamma,Delta,FALSE,0.6931493,30,FALSE,1
11008,training_phase_2,1,1,5,materials/images/blueB3.png,Beta,Beta,TRUE,1.3625923,30,FALSE,2
11008,training_phase_2,1,1,6,materials/images/blueB2.png,Beta,Gamma,FALSE,0.022961199,30,FALSE,2
11008,training_phase_2,1,1,7,materials/images/greenD5.png,Delta,Delta,TRUE,0.5409567,30,FALSE,3
11008,training_phase_2,1,1,8,materials/images/blueB4.png,Beta,Delta,FALSE,0.0188761,30,FALSE,3
11008,training_phase_2,1,1,9,materials/images/blackG2.png,Gamma,Beta,FALSE,0.3019373,30,FALSE,3
11008,training_phase_2,1,1,10,materials/images/greenD1.png,Delta,Beta,FALSE,0.5467419,30,FALSE,3
11008,training_phase_2,1,1,11,materials/images/greenD3.png,Delta,Delta,TRUE,0.024048,30,FALSE,4
11008,training_phase_2,1,1,12,materials/images/redA5.png,Alpha,Gamma,FALSE,0.538099499,30,FALSE,4
11008,training_phase_2,1,1,13,materials/images/redA2.png,Alpha,Alpha,TRUE,0.5084874,30,FALSE,5
11008,training_phase_2,1,1,14,materials/images/greenD4.png,Delta,Beta,FALSE,0.2607427,30,FALSE,5
11008,training_phase_2,1,1,15,materials/images/redA6.png,Alpha,Beta,FALSE,0.2368276,30,FALSE,5
11008,training_phase_2,1,1,16,materials/images/blackG5.png,Gamma,Delta,FALSE,0.0240008,30,FALSE,5
11008,training_phase_2,1,1,17,materials/images/blueB6.png,Beta,Gamma,FALSE,0.2437084,30,FALSE,5
11008,training_phase_2,1,1,18,materials/images/greenD6.png,Delta,Beta,FALSE,0.1279692,30,FALSE,5
11008,training_phase_2,1,1,19,materials/images/blackG4.png,Gamma,Gamma,TRUE,0.5594614,30,FALSE,6
11008,training_phase_2,1,1,20,materials/images/redA4.png,Alpha,Beta,FALSE,0.0183692,30,FALSE,6
11008,training_phase_2,1,1,21,materials/images/greenD2.png,Delta,Delta,TRUE,0.0230342,30,FALSE,7
11008,training_phase_2,1,1,22,materials/images/blackG6.png,Gamma,Gamma,TRUE,0.148517,30,FALSE,8
11008,training_phase_2,1,1,23,materials/images/redA3.png,Alpha,Alpha,TRUE,1.0759984,30,FALSE,9
11008,training_phase_2,1,1,24,materials/images/blueB1.png,Beta,Beta,TRUE,1.2873076,30,FALSE,10
11008,training_phase_2,1,2,25,materials/images/blueB4.png,Beta,Alpha,FALSE,0.3128886,30,FALSE,0
11008,training_phase_2,1,2,26,materials/images/blackG6.png,Gamma,Delta,FALSE,0.7033034,30,FALSE,0
11008,training_phase_2,1,2,27,materials/images/redA1.png,Alpha,Alpha,TRUE,0.311423399,30,FALSE,1
11008,training_phase_2,1,2,28,materials/images/greenD4.png,Delta,Delta,TRUE,0.420870801,30,FALSE,2
11008,training_phase_2,1,2,29,materials/images/blueB6.png,Beta,Beta,TRUE,0.2914701,30,FALSE,3
11008,training_phase_2,1,2,30,materials/images/blackG5.png,Gamma,Gamma,TRUE,1.5996721,30,FALSE,4
11008,training_phase_2,1,2,31,materials/images/redA5.png,Alpha,Alpha,TRUE,0.7729255,30,FALSE,5
11008,training_phase_2,1,2,32,materials/images/blackG1.png,Gamma,Beta,FALSE,1.6064051,30,FALSE,5
11008,training_phase_2,1,2,33,materials/images/greenD5.png,Delta,Delta,TRUE,0.04917,30,FALSE,6
11008,training_phase_2,1,2,34,materials/images/blueB3.png,Beta,Gamma,FALSE,0.5409601,30,FALSE,6
11008,training_phase_2,1,2,35,materials/images/blueB5.png,Beta,Beta,TRUE,1.3973061,30,FALSE,7
11008,training_phase_2,1,2,36,materials/images/greenD3.png,Delta,Delta,TRUE,0.3903333,30,FALSE,8
11008,training_phase_2,1,2,37,materials/images/greenD6.png,Delta,Delta,TRUE,0.368116501,30,FALSE,9
11008,training_phase_2,1,2,38,materials/images/greenD2.png,Delta,Delta,TRUE,0.2372755,30,FALSE,10
11008,training_phase_2,1,2,39,materials/images/blueB1.png,Beta,Beta,TRUE,0.3464269,30,FALSE,11
11008,training_phase_2,1,2,40,materials/images/redA2.png,Alpha,Alpha,TRUE,0.0653055,30,FALSE,12
11008,training_phase_2,1,2,41,materials/images/blackG3.png,Gamma,Gamma,TRUE,0.094389,30,FALSE,13
11008,training_phase_2,1,2,42,materials/images/redA4.png,Alpha,Alpha,TRUE,0.5210013,30,FALSE,14
11008,training_phase_2,1,2,43,materials/images/blackG4.png,Gamma,Gamma,TRUE,0.266524499,30,FALSE,15
11008,training_phase_2,1,2,44,materials/images/greenD1.png,Delta,Beta,FALSE,0.4572905,30,FALSE,15
11008,training_phase_2,1,2,45,materials/images/blueB2.png,Beta,Beta,TRUE,2.218642999,30,FALSE,16
11008,training_phase_2,1,2,46,materials/images/redA3.png,Alpha,Alpha,TRUE,0.039113199,30,FALSE,17
11008,training_phase_2,1,2,47,materials/images/redA6.png,Alpha,Delta,FALSE,0.261845901,30,FALSE,17
11008,training_phase_2,1,2,48,materials/images/blackG2.png,Gamma,Beta,FALSE,0.209044,30,FALSE,17
11011,training_phase_1,2,1,1,materials/images/blueB6.png,Beta,Alpha,FALSE,2.6568712,11,FALSE,0
11011,training_phase_1,2,1,2,materials/images/blueB5.png,Beta,Beta,TRUE,0.6519641,11,FALSE,1
11011,training_phase_1,2,1,3,materials/images/redA5.png,Alpha,Beta,FALSE,1.1387829,11,FALSE,1
11011,training_phase_1,2,1,4,materials/images/redA3.png,Alpha,Alpha,TRUE,0.0233096,11,FALSE,2
11011,training_phase_1,2,1,5,materials/images/redA6.png,Alpha,Beta,FALSE,0.017846,11,FALSE,2
11011,training_phase_1,2,1,6,materials/images/blueB1.png,Beta,Alpha,FALSE,0.4536262,11,FALSE,2
11011,training_phase_1,2,1,7,materials/images/redA2.png,Alpha,Beta,FALSE,0.4153724,11,FALSE,2
11011,training_phase_1,2,1,8,materials/images/blueB3.png,Beta,Beta,TRUE,1.1614677,11,FALSE,3
11011,training_phase_1,2,1,9,materials/images/redA4.png,Alpha,Alpha,TRUE,1.5171986,11,FALSE,4
11011,training_phase_1,2,1,10,materials/images/redA1.png,Alpha,Alpha,TRUE,0.2215389,11,FALSE,5
11011,training_phase_1,2,1,11,materials/images/blueB4.png,Beta,Alpha,FALSE,2.0995963,11,FALSE,5
11011,training_phase_1,2,1,12,materials/images/blueB2.png,Beta,Beta,TRUE,0.5878602,11,FALSE,6
11011,training_phase_1,2,2,13,materials/images/redA5.png,Alpha,Beta,FALSE,2.3434858,11,FALSE,0
11011,training_phase_1,2,2,14,materials/images/blueB4.png,Beta,Beta,TRUE,0.1690922,11,FALSE,1
11011,training_phase_1,2,2,15,materials/images/blueB6.png,Beta,Beta,TRUE,0.0418855,11,FALSE,2
11011,training_phase_1,2,2,16,materials/images/blueB2.png,Beta,Alpha,FALSE,0.0223639,11,FALSE,2
11011,training_phase_1,2,2,17,materials/images/redA2.png,Alpha,Alpha,TRUE,0.8146505,11,FALSE,3
11011,training_phase_1,2,2,18,materials/images/redA6.png,Alpha,Alpha,TRUE,0.7633017,11,FALSE,4
11011,training_phase_1,2,2,19,materials/images/redA3.png,Alpha,Alpha,TRUE,0.2621462,11,FALSE,5
11011,training_phase_1,2,2,20,materials/images/redA1.png,Alpha,Alpha,TRUE,0.0392529,11,FALSE,6
11011,training_phase_1,2,2,21,materials/images/blueB3.png,Beta,Beta,TRUE,0.8079413,11,FALSE,7
11011,training_phase_1,2,2,22,materials/images/blueB5.png,Beta,Beta,TRUE,0.1501983,11,FALSE,8
11011,training_phase_1,2,2,23,materials/images/blueB1.png,Beta,Beta,TRUE,3.2612325,11,FALSE,9
11011,training_phase_1,2,2,24,materials/images/redA4.png,Alpha,Alpha,TRUE,0.2115056,11,FALSE,10
11011,training_phase_1,2,3,25,materials/images/blueB2.png,Beta,Beta,TRUE,0.0185274,11,FALSE,1
11011,training_phase_1,2,3,26,materials/images/redA5.png,Alpha,Beta,FALSE,0.0367293,11,FALSE,1
11011,training_phase_1,2,3,27,materials/images/blueB6.png,Beta,Beta,TRUE,0.5795591,11,FALSE,2
11011,training_phase_1,2,3,28,materials/images/redA1.png,Alpha,Alpha,TRUE,0.0181207,11,FALSE,3
11011,training_phase_1,2,3,29,materials/images/redA2.png,Alpha,Alpha,TRUE,0.3806942,11,FALSE,4
11011,training_phase_1,2,3,30,materials/images/blueB4.png,Beta,Alpha,FALSE,0.4590562,11,FALSE,4
11011,training_phase_1,2,3,31,materials/images/redA6.png,Alpha,Beta,FALSE,0.3797781,11,FALSE,4
11011,training_phase_1,2,3,32,materials/images/redA3.png,Alpha,Alpha,TRUE,6.1391416,11,FALSE,5
11011,training_phase_1,2,3,33,materials/images/blueB5.png,Beta,Beta,TRUE,1.1475146,11,FALSE,6
11011,training_phase_1,2,3,34,materials/images/redA4.png,Alpha,Beta,FALSE,1.1472612,11,FALSE,6
11011,training_phase_1,2,3,35,materials/images/blueB1.png,Beta,Beta,TRUE,0.1490083,11,FALSE,7
11011,training_phase_1,2,3,36,materials/images/blueB3.png,Beta,Beta,TRUE,0.3477168,11,FALSE,8
11011,training_phase_1,2,4,37,materials/images/redA4.png,Alpha,Alpha,TRUE,0.1542782,11,FALSE,1
11011,training_phase_1,2,4,38,materials/images/redA5.png,Alpha,Alpha,TRUE,0.2589195,11,FALSE,2
11011,training_phase_1,2,4,39,materials/images/blueB1.png,Beta,Beta,TRUE,3.1339691,11,FALSE,3
11011,training_phase_1,2,4,40,materials/images/blueB4.png,Beta,Beta,TRUE,0.1559727,11,FALSE,4
11011,training_phase_1,2,4,41,materials/images/blueB2.png,Beta,Alpha,FALSE,1.1798979,11,FALSE,4
11011,training_phase_1,2,4,42,materials/images/redA2.png,Alpha,Alpha,TRUE,0.0187021,11,FALSE,5
11011,training_phase_1,2,4,43,materials/images/blueB6.png,Beta,Beta,TRUE,0.8387419,11,FALSE,6
11011,training_phase_1,2,4,44,materials/images/blueB5.png,Beta,Beta,TRUE,0.3522405,11,FALSE,7
11011,training_phase_1,2,4,45,materials/images/redA3.png,Alpha,Alpha,TRUE,0.3729864,11,FALSE,8
11011,training_phase_1,2,4,46,materials/images/blueB3.png,Beta,Beta,TRUE,0.1989567,11,FALSE,9
11011,training_phase_1,2,4,47,materials/images/redA1.png,Alpha,Alpha,TRUE,0.0227899,11,FALSE,10
11011,training_phase_1,2,4,48,materials/images/redA6.png,Alpha,Beta,FALSE,0.1645663,11,FALSE,10
11011,training_phase_1,2,5,49,materials/images/redA3.png,Alpha,Alpha,TRUE,0.0218256,11,FALSE,1
11011,training_phase_1,2,5,50,materials/images/redA1.png,Alpha,Alpha,TRUE,0.0179308,11,FALSE,2
11011,training_phase_1,2,5,51,materials/images/blueB6.png,Beta,Beta,TRUE,0.387546,11,FALSE,3
11011,training_phase_1,2,5,52,materials/images/redA2.png,Alpha,Alpha,TRUE,0.3973948,11,FALSE,4
11011,training_phase_1,2,5,53,materials/images/blueB5.png,Beta,Beta,TRUE,0.0190588,11,FALSE,5
11011,training_phase_1,2,5,54,materials/images/redA6.png,Alpha,Alpha,TRUE,1.1998446,11,FALSE,6
11011,training_phase_1,2,5,55,materials/images/blueB1.png,Beta,Beta,TRUE,0.0227726,11,FALSE,7
11011,training_phase_1,2,5,56,materials/images/blueB2.png,Beta,Beta,TRUE,0.0186634,11,FALSE,8
11011,training_phase_1,2,5,57,materials/images/redA4.png,Alpha,Alpha,TRUE,0.3020683,11,FALSE,9
11011,training_phase_1,2,5,58,materials/images/redA5.png,Alpha,Alpha,TRUE,0.3155996,11,FALSE,10
11011,training_phase_1,2,5,59,materials/images/blueB3.png,Beta,Beta,TRUE,0.0183415,11,TRUE,11
11011,training_phase_1,2,5,60,materials/images/blueB4.png,Beta,Beta,TRUE,0.3031675,11,TRUE,12
11011,test_phase,2,1,1,materials/images/redA1.png,Alpha,Beta,gen,0.0275293,1,TRUE,1
11011,test_phase,2,1,2,materials/images/redA2.png,Alpha,Alpha,gen,0.4335308,1,TRUE,2
11011,test_phase,2,1,3,materials/images/blueB4.png,Beta,Beta,gen,0.6077399,1,TRUE,3
11011,test_phase,2,1,4,materials/images/redA6.png,Alpha,Beta,gen,0.3947762,1,TRUE,4
11011,test_phase,2,1,5,materials/images/yGen4.png,test,Beta,gen,0.0276636,1,TRUE,5
11011,test_phase,2,1,6,materials/images/yGen5.png,test,Beta,gen,0.0238763,1,TRUE,6
11011,test_phase,2,1,7,materials/images/yGen2.png,test,Alpha,gen,0.5516448,1,TRUE,7
11011,test_phase,2,1,8,materials/images/redA4.png,Alpha,Alpha,gen,0.1892479,1,TRUE,8
11011,test_phase,2,1,9,materials/images/redA3.png,Alpha,Alpha,gen,0.4317491,1,TRUE,9
11011,test_phase,2,1,10,materials/images/yGen1.png,test,Alpha,gen,0.1616724,1,TRUE,10
11011,test_phase,2,1,11,materials/images/blueB6.png,Beta,Beta,gen,0.0185272,1,TRUE,11
11011,test_phase,2,1,12,materials/images/yGen3.png,test,Beta,gen,0.0183581,1,TRUE,12
11011,test_phase,2,1,13,materials/images/blueB5.png,Beta,Beta,gen,0.0235169,1,TRUE,13
11011,test_phase,2,1,14,materials/images/redA5.png,Alpha,Alpha,gen,0.9057418,1,TRUE,14
11011,test_phase,2,1,15,materials/images/blueB3.png,Beta,Beta,gen,0.0233372,1,TRUE,15
11011,test_phase,2,1,16,materials/images/blueB1.png,Beta,Beta,gen,0.1836031,1,TRUE,16
11011,test_phase,2,1,17,materials/images/blueB2.png,Beta,Beta,gen,0.932439,1,TRUE,17
11011,training_phase_2,2,1,1,materials/images/blueB5.png,Beta,Beta,TRUE,0.0298533,30,FALSE,1
11011,training_phase_2,2,1,2,materials/images/blueB3.png,Beta,Beta,TRUE,0.196296,30,FALSE,2
11011,training_phase_2,2,1,3,materials/images/greenD3.png,Delta,Beta,FALSE,0.3960365,30,FALSE,2
11011,training_phase_2,2,1,4,materials/images/blueB6.png,Beta,Beta,TRUE,0.1219226,30,FALSE,3
11011,training_phase_2,2,1,5,materials/images/redA6.png,Alpha,Alpha,TRUE,0.0436761,30,FALSE,4
11011,training_phase_2,2,1,6,materials/images/redA2.png,Alpha,Alpha,TRUE,0.325165,30,FALSE,5
11011,training_phase_2,2,1,7,materials/images/blackG3.png,Gamma,Alpha,FALSE,0.0183249,30,FALSE,5
11011,training_phase_2,2,1,8,materials/images/greenD6.png,Delta,Delta,TRUE,0.4622419,30,FALSE,6
11011,training_phase_2,2,1,9,materials/images/greenD2.png,Delta,Delta,TRUE,0.499203,30,FALSE,7
11011,training_phase_2,2,1,10,materials/images/greenD5.png,Delta,Beta,FALSE,0.1175388,30,FALSE,7
11011,training_phase_2,2,1,11,materials/images/blackG6.png,Gamma,Beta,FALSE,0.018595,30,FALSE,7
11011,training_phase_2,2,1,12,materials/images/redA3.png,Alpha,Alpha,TRUE,0.3254618,30,FALSE,8
11011,training_phase_2,2,1,13,materials/images/redA5.png,Alpha,Alpha,TRUE,3.6190951,30,FALSE,9
11011,training_phase_2,2,1,14,materials/images/blueB1.png,Beta,Alpha,FALSE,0.5090112,30,FALSE,9
11011,training_phase_2,2,1,15,materials/images/blackG5.png,Gamma,Beta,FALSE,1.7870073,30,FALSE,9
11011,training_phase_2,2,1,16,materials/images/redA4.png,Alpha,Alpha,TRUE,1.0369585,30,FALSE,10
11011,training_phase_2,2,1,17,materials/images/blackG2.png,Gamma,Alpha,FALSE,0.2033485,30,FALSE,10
11011,training_phase_2,2,1,18,materials/images/greenD4.png,Delta,Beta,FALSE,1.1470279,30,FALSE,10
11011,training_phase_2,2,1,19,materials/images/blueB2.png,Beta,Alpha,FALSE,0.2797217,30,FALSE,10
11011,training_phase_2,2,1,20,materials/images/blueB4.png,Beta,Beta,TRUE,3.103549,30,FALSE,11
11011,training_phase_2,2,1,21,materials/images/greenD1.png,Delta,Delta,TRUE,0.0782638,30,FALSE,12
11011,training_phase_2,2,1,22,materials/images/blackG4.png,Gamma,Gamma,TRUE,0.0757032,30,FALSE,13
11011,training_phase_2,2,1,23,materials/images/blackG1.png,Gamma,Alpha,FALSE,0.1061769,30,FALSE,13
11011,training_phase_2,2,1,24,materials/images/redA1.png,Alpha,Alpha,TRUE,0.1649303,30,FALSE,14
11011,training_phase_2,2,2,25,materials/images/redA3.png,Alpha,Alpha,TRUE,0.018085,30,FALSE,1
11011,training_phase_2,2,2,26,materials/images/blackG6.png,Gamma,Delta,FALSE,1.6862997,30,FALSE,1
11011,training_phase_2,2,2,27,materials/images/redA1.png,Alpha,Alpha,TRUE,0.1117605,30,FALSE,2
11011,training_phase_2,2,2,28,materials/images/blueB3.png,Beta,Gamma,FALSE,0.0921917,30,FALSE,2
11011,training_phase_2,2,2,29,materials/images/blackG4.png,Gamma,Beta,FALSE,0.3194231,30,FALSE,2
11011,training_phase_2,2,2,30,materials/images/redA2.png,Alpha,Alpha,TRUE,0.4047529,30,FALSE,3
11011,training_phase_2,2,2,31,materials/images/blueB5.png,Beta,Delta,FALSE,0.3429623,30,FALSE,3
11011,training_phase_2,2,2,32,materials/images/redA6.png,Alpha,Delta,FALSE,1.1175984,30,FALSE,3
11011,training_phase_2,2,2,33,materials/images/greenD1.png,Delta,Gamma,FALSE,1.0855205,30,FALSE,3
11011,training_phase_2,2,2,34,materials/images/redA4.png,Alpha,Beta,FALSE,0.799162,30,FALSE,3
11011,training_phase_2,2,2,35,materials/images/blackG5.png,Gamma,Beta,FALSE,0.088056,30,FALSE,3
11011,training_phase_2,2,2,36,materials/images/blueB1.png,Beta,Gamma,FALSE,0.9388934,30,FALSE,3
11011,training_phase_2,2,2,37,materials/images/greenD2.png,Delta,Gamma,FALSE,3.4585783,30,FALSE,3
11011,training_phase_2,2,2,38,materials/images/redA5.png,Alpha,Beta,FALSE,4.2285105,30,FALSE,3
11011,training_phase_2,2,2,39,materials/images/blackG3.png,Gamma,Alpha,FALSE,0.0479218,30,FALSE,3
11011,training_phase_2,2,2,40,materials/images/blueB2.png,Beta,Beta,TRUE,0.4134086,30,FALSE,4
11011,training_phase_2,2,2,41,materials/images/greenD6.png,Delta,Beta,FALSE,0.0777233,30,FALSE,4
11011,training_phase_2,2,2,42,materials/images/blackG1.png,Gamma,Alpha,FALSE,0.0180515,30,FALSE,4
11011,training_phase_2,2,2,43,materials/images/greenD4.png,Delta,Beta,FALSE,0.5386954,30,FALSE,4
11011,training_phase_2,2,2,44,materials/images/blueB6.png,Beta,Beta,TRUE,0.1953394,30,FALSE,5
11011,training_phase_2,2,2,45,materials/images/blueB4.png,Beta,Beta,TRUE,0.0231249,30,FALSE,6
11011,training_phase_2,2,2,46,materials/images/greenD3.png,Delta,Gamma,FALSE,0.9408365,30,FALSE,6
11011,training_phase_2,2,2,47,materials/images/blackG2.png,Gamma,Delta,FALSE,1.0162155,30,FALSE,6
11011,training_phase_2,2,2,48,materials/images/greenD5.png,Delta,Delta,TRUE,0.7697163,30,FALSE,7
11012,training_phase_1,1,1,1,materials/images/blueB6.png,Beta,Alpha,FALSE,1.9080973,11,FALSE,0
11012,training_phase_1,1,1,2,materials/images/blueB5.png,Beta,Beta,TRUE,0.0224043,11,FALSE,1
11012,training_phase_1,1,1,3,materials/images/blueB1.png,Beta,Beta,TRUE,0.6223714,11,FALSE,2
11012,training_phase_1,1,1,4,materials/images/redA3.png,Alpha,Beta,FALSE,0.1114093,11,FALSE,2
11012,training_phase_1,1,1,5,materials/images/redA5.png,Alpha,Beta,FALSE,0.3054713,11,FALSE,2
11012,training_phase_1,1,1,6,materials/images/blueB3.png,Beta,Beta,TRUE,1.7785878,11,FALSE,3
11012,training_phase_1,1,1,7,materials/images/redA1.png,Alpha,Alpha,TRUE,0.376021,11,FALSE,4
11012,training_phase_1,1,1,8,materials/images/blueB2.png,Beta,Beta,TRUE,1.2667028,11,FALSE,5
11012,training_phase_1,1,1,9,materials/images/redA6.png,Alpha,Alpha,TRUE,0.2885183,11,FALSE,6
11012,training_phase_1,1,1,10,materials/images/redA4.png,Alpha,Alpha,TRUE,0.5284899,11,FALSE,7
11012,training_phase_1,1,1,11,materials/images/blueB4.png,Beta,Alpha,FALSE,0.0570604,11,FALSE,7
11012,training_phase_1,1,1,12,materials/images/redA2.png,Alpha,Alpha,TRUE,0.0499049,11,FALSE,8
11012,training_phase_1,1,2,13,materials/images/blueB1.png,Beta,Alpha,FALSE,1.6379136,11,FALSE,0
11012,training_phase_1,1,2,14,materials/images/redA1.png,Alpha,Alpha,TRUE,0.3584099,11,FALSE,1
11012,training_phase_1,1,2,15,materials/images/blueB6.png,Beta,Beta,TRUE,0.7292123,11,FALSE,2
11012,training_phase_1,1,2,16,materials/images/blueB2.png,Beta,Beta,TRUE,0.5090955,11,FALSE,3
11012,training_phase_1,1,2,17,materials/images/redA5.png,Alpha,Alpha,TRUE,0.4535121,11,FALSE,4
11012,training_phase_1,1,2,18,materials/images/blueB3.png,Beta,Beta,TRUE,0.0226301,11,FALSE,5
11012,training_phase_1,1,2,19,materials/images/redA3.png,Alpha,Alpha,TRUE,0.3033022,11,FALSE,6
11012,training_phase_1,1,2,20,materials/images/redA2.png,Alpha,Alpha,TRUE,0.5958201,11,FALSE,7
11012,training_phase_1,1,2,21,materials/images/redA4.png,Alpha,Alpha,TRUE,2.5279295,11,FALSE,8
11012,training_phase_1,1,2,22,materials/images/blueB4.png,Beta,Beta,TRUE,1.3515699,11,FALSE,9
11012,training_phase_1,1,2,23,materials/images/blueB5.png,Beta,Alpha,FALSE,0.2050335,11,FALSE,9
11012,training_phase_1,1,2,24,materials/images/redA6.png,Alpha,Alpha,TRUE,0.0180643,11,FALSE,10
11012,training_phase_1,1,3,25,materials/images/blueB3.png,Beta,Alpha,FALSE,0.8775384,11,FALSE,0
11012,training_phase_1,1,3,26,materials/images/redA6.png,Alpha,Beta,FALSE,0.3018096,11,FALSE,0
11012,training_phase_1,1,3,27,materials/images/blueB5.png,Beta,Beta,TRUE,0.7370774,11,FALSE,1
11012,training_phase_1,1,3,28,materials/images/redA5.png,Alpha,Alpha,TRUE,4.2841296,11,FALSE,2
11012,training_phase_1,1,3,29,materials/images/redA1.png,Alpha,Alpha,TRUE,0.2670712,11,FALSE,3
11012,training_phase_1,1,3,30,materials/images/blueB1.png,Beta,Beta,TRUE,0.2096572,11,FALSE,4
11012,training_phase_1,1,3,31,materials/images/redA3.png,Alpha,Alpha,TRUE,1.006572,11,FALSE,5
11012,training_phase_1,1,3,32,materials/images/redA4.png,Alpha,Alpha,TRUE,0.6911497,11,FALSE,6
11012,training_phase_1,1,3,33,materials/images/blueB4.png,Beta,Beta,TRUE,0.5226359,11,FALSE,7
11012,training_phase_1,1,3,34,materials/images/redA2.png,Alpha,Alpha,TRUE,0.0463878,11,FALSE,8
11012,training_phase_1,1,3,35,materials/images/blueB2.png,Beta,Beta,TRUE,0.1518375,11,FALSE,9
11012,training_phase_1,1,3,36,materials/images/blueB6.png,Beta,Beta,TRUE,0.2846909,11,FALSE,10
11012,training_phase_1,1,4,37,materials/images/redA4.png,Alpha,Alpha,TRUE,1.5408779,11,FALSE,1
11012,training_phase_1,1,4,38,materials/images/redA1.png,Alpha,Alpha,TRUE,0.2492322,11,FALSE,2
11012,training_phase_1,1,4,39,materials/images/blueB1.png,Beta,Beta,TRUE,1.1308938,11,FALSE,3
11012,training_phase_1,1,4,40,materials/images/blueB4.png,Beta,Beta,TRUE,0.6276498,11,FALSE,4
11012,training_phase_1,1,4,41,materials/images/redA5.png,Alpha,Alpha,TRUE,0.3052671,11,FALSE,5
11012,training_phase_1,1,4,42,materials/images/blueB2.png,Beta,Beta,TRUE,0.5676713,11,FALSE,6
11012,training_phase_1,1,4,43,materials/images/redA2.png,Alpha,Alpha,TRUE,0.5231792,11,FALSE,7
11012,training_phase_1,1,4,44,materials/images/blueB5.png,Beta,Beta,TRUE,0.319516,11,FALSE,8
11012,training_phase_1,1,4,45,materials/images/blueB3.png,Beta,Beta,TRUE,0.3755236,11,FALSE,9
11012,training_phase_1,1,4,46,materials/images/redA6.png,Alpha,Beta,FALSE,0.8717918,11,FALSE,9
11012,training_phase_1,1,4,47,materials/images/redA3.png,Alpha,Alpha,TRUE,0.018721,11,FALSE,10
11012,training_phase_1,1,4,48,materials/images/blueB6.png,Beta,Beta,TRUE,1.3404875,11,TRUE,11
11012,test_phase,1,1,1,materials/images/redA4.png,Alpha,Alpha,gen,1.3342165,1,TRUE,1
11012,test_phase,1,1,2,materials/images/blueB3.png,Beta,Beta,gen,0.5374059,1,TRUE,2
11012,test_phase,1,1,3,materials/images/blueB1.png,Beta,Beta,gen,0.0317272,1,TRUE,3
11012,test_phase,1,1,4,materials/images/yGen1.png,test,Alpha,gen,0.8887923,1,TRUE,4
11012,test_phase,1,1,5,materials/images/yGen2.png,test,Beta,gen,0.1652615,1,TRUE,5
11012,test_phase,1,1,6,materials/images/blueB4.png,Beta,Beta,gen,0.1963209,1,TRUE,6
11012,test_phase,1,1,7,materials/images/blueB2.png,Beta,Alpha,gen,0.0229083,1,TRUE,7
11012,test_phase,1,1,8,materials/images/yGen4.png,test,Beta,gen,0.1561591,1,TRUE,8
11012,test_phase,1,1,9,materials/images/redA6.png,Alpha,Alpha,gen,0.7347835,1,TRUE,9
11012,test_phase,1,1,10,materials/images/redA1.png,Alpha,Alpha,gen,0.5497743,1,TRUE,10
11012,test_phase,1,1,11,materials/images/yGen5.png,test,Beta,gen,0.0190527,1,TRUE,11
11012,test_phase,1,1,12,materials/images/redA5.png,Alpha,Alpha,gen,0.1901991,1,TRUE,12
11012,test_phase,1,1,13,materials/images/blueB5.png,Beta,Alpha,gen,0.0767683,1,TRUE,13
11012,test_phase,1,1,14,materials/images/yGen3.png,test,Beta,gen,0.0235815,1,TRUE,14
11012,test_phase,1,1,15,materials/images/redA3.png,Alpha,Alpha,gen,0.2444469,1,TRUE,15
11012,test_phase,1,1,16,materials/images/blueB6.png,Beta,Beta,gen,3.3356041,1,TRUE,16
11012,test_phase,1,1,17,materials/images/redA2.png,Alpha,Alpha,gen,0.1217436,1,TRUE,17
11012,training_phase_2,1,1,1,materials/images/redA3.png,Alpha,Alpha,TRUE,0.9101118,30,FALSE,1
11012,training_phase_2,1,1,2,materials/images/blackG3.png,Gamma,Beta,FALSE,0.0180184,30,FALSE,1
11012,training_phase_2,1,1,3,materials/images/blackG6.png,Gamma,Gamma,TRUE,1.1453122,30,FALSE,2
11012,training_phase_2,1,1,4,materials/images/blueB2.png,Beta,Beta,TRUE,1.5160698,30,FALSE,3
11012,training_phase_2,1,1,5,materials/images/greenD6.png,Delta,Beta,FALSE,0.1201491,30,FALSE,3
11012,training_phase_2,1,1,6,materials/images/redA5.png,Alpha,Alpha,TRUE,1.2435805,30,FALSE,4
11012,training_phase_2,1,1,7,materials/images/redA2.png,Alpha,Alpha,TRUE,0.1485872,30,FALSE,5
11012,training_phase_2,1,1,8,materials/images/greenD3.png,Delta,Delta,TRUE,0.4108263,30,FALSE,6
11012,training_phase_2,1,1,9,materials/images/blueB3.png,Beta,Delta,FALSE,1.531682,30,FALSE,6
11012,training_phase_2,1,1,10,materials/images/blueB4.png,Beta,Alpha,FALSE,0.6891092,30,FALSE,6
11012,training_phase_2,1,1,11,materials/images/greenD1.png,Delta,Gamma,FALSE,2.2034119,30,FALSE,6
11012,training_phase_2,1,1,12,materials/images/blueB6.png,Beta,Delta,FALSE,0.2094348,30,FALSE,6
11012,training_phase_2,1,1,13,materials/images/blueB5.png,Beta,Alpha,FALSE,0.5177043,30,FALSE,6
11012,training_phase_2,1,1,14,materials/images/blackG1.png,Gamma,Gamma,TRUE,0.9036211,30,FALSE,7
11012,training_phase_2,1,1,15,materials/images/redA6.png,Alpha,Delta,FALSE,1.436331,30,FALSE,7
11012,training_phase_2,1,1,16,materials/images/redA1.png,Alpha,Gamma,FALSE,0.2418648,30,FALSE,7
11012,training_phase_2,1,1,17,materials/images/blackG5.png,Gamma,Alpha,FALSE,0.4851551,30,FALSE,7
11012,training_phase_2,1,1,18,materials/images/blackG2.png,Gamma,Delta,FALSE,2.1341223,30,FALSE,7
11012,training_phase_2,1,1,19,materials/images/greenD2.png,Delta,Gamma,FALSE,0.8017504,30,FALSE,7
11012,training_phase_2,1,1,20,materials/images/blackG4.png,Gamma,Alpha,FALSE,0.7771725,30,FALSE,7
11012,training_phase_2,1,1,21,materials/images/greenD4.png,Delta,Beta,FALSE,0.018444,30,FALSE,7
11012,training_phase_2,1,1,22,materials/images/redA4.png,Alpha,Alpha,TRUE,1.0755807,30,FALSE,8
11012,training_phase_2,1,1,23,materials/images/blueB1.png,Beta,Gamma,FALSE,0.6986225,30,FALSE,8
11012,training_phase_2,1,1,24,materials/images/greenD5.png,Delta,Gamma,FALSE,0.0230592,30,FALSE,8
11012,training_phase_2,1,2,25,materials/images/blackG5.png,Gamma,Beta,FALSE,1.1829803,30,FALSE,0
11012,training_phase_2,1,2,26,materials/images/greenD6.png,Delta,Delta,TRUE,0.460712,30,FALSE,1
11012,training_phase_2,1,2,27,materials/images/redA4.png,Alpha,Alpha,TRUE,0.2702058,30,FALSE,2
11012,training_phase_2,1,2,28,materials/images/greenD5.png,Delta,Delta,TRUE,0.1668988,30,FALSE,3
11012,training_phase_2,1,2,29,materials/images/greenD3.png,Delta,Delta,TRUE,0.4734983,30,FALSE,4
11012,training_phase_2,1,2,30,materials/images/blackG3.png,Gamma,Gamma,TRUE,2.0874604,30,FALSE,5
11012,training_phase_2,1,2,31,materials/images/redA3.png,Alpha,Alpha,TRUE,0.6403816,30,FALSE,6
11012,training_phase_2,1,2,32,materials/images/blackG4.png,Gamma,Gamma,TRUE,0.3877575,30,FALSE,7
11012,training_phase_2,1,2,33,materials/images/blueB4.png,Beta,Alpha,FALSE,0.1306299,30,FALSE,7
11012,training_phase_2,1,2,34,materials/images/greenD1.png,Delta,Gamma,FALSE,2.8879592,30,FALSE,7
11012,training_phase_2,1,2,35,materials/images/blueB2.png,Beta,Delta,FALSE,0.3531248,30,FALSE,7
11012,training_phase_2,1,2,36,materials/images/blackG2.png,Gamma,Delta,FALSE,2.2527623,30,FALSE,7
11012,training_phase_2,1,2,37,materials/images/greenD4.png,Delta,Delta,TRUE,0.2698068,30,FALSE,8
11012,training_phase_2,1,2,38,materials/images/redA5.png,Alpha,Beta,FALSE,0.0719058,30,FALSE,8
11012,training_phase_2,1,2,39,materials/images/redA6.png,Alpha,Alpha,TRUE,0.022977,30,FALSE,9
11012,training_phase_2,1,2,40,materials/images/blueB1.png,Beta,Gamma,FALSE,0.754958,30,FALSE,9
11012,training_phase_2,1,2,41,materials/images/redA1.png,Alpha,Alpha,TRUE,0.1020092,30,FALSE,10
11012,training_phase_2,1,2,42,materials/images/blackG6.png,Gamma,Alpha,FALSE,0.3390527,30,FALSE,10
11012,training_phase_2,1,2,43,materials/images/blueB3.png,Beta,Beta,TRUE,0.0708155,30,FALSE,11
11012,training_phase_2,1,2,44,materials/images/blackG1.png,Gamma,Gamma,TRUE,0.2841279,30,FALSE,12
11012,training_phase_2,1,2,45,materials/images/blueB6.png,Beta,Gamma,FALSE,0.6259457,30,FALSE,12
11012,training_phase_2,1,2,46,materials/images/blueB5.png,Beta,Alpha,FALSE,0.0849051,30,FALSE,12
11012,training_phase_2,1,2,47,materials/images/greenD2.png,Delta,Gamma,FALSE,0.8246292,30,FALSE,12
11012,training_phase_2,1,2,48,materials/images/redA2.png,Alpha,Beta,FALSE,0.0227805,30,FALSE,12
11013,training_phase_1,2,1,1,materials/images/blueB1.png,Beta,Alpha,FALSE,1.801713999,11,FALSE,0
11013,training_phase_1,2,1,2,materials/images/redA2.png,Alpha,Beta,FALSE,0.6578141,11,FALSE,0
11013,training_phase_1,2,1,3,materials/images/blueB5.png,Beta,Alpha,FALSE,0.5202703,11,FALSE,0
11013,training_phase_1,2,1,4,materials/images/blueB4.png,Beta,Alpha,FALSE,4.473804601,11,FALSE,0
11013,training_phase_1,2,1,5,materials/images/blueB2.png,Beta,Beta,TRUE,4.7620688,11,FALSE,1
11013,training_phase_1,2,1,6,materials/images/redA3.png,Alpha,Alpha,TRUE,0.4148217,11,FALSE,2
11013,training_phase_1,2,1,7,materials/images/redA5.png,Alpha,Beta,FALSE,5.5724663,11,FALSE,2
11013,training_phase_1,2,1,8,materials/images/redA1.png,Alpha,Alpha,TRUE,2.8260506,11,FALSE,3
11013,training_phase_1,2,1,9,materials/images/redA6.png,Alpha,Alpha,TRUE,4.2125384,11,FALSE,4
11013,training_phase_1,2,1,10,materials/images/blueB6.png,Beta,Alpha,FALSE,2.2926055,11,FALSE,4
11013,training_phase_1,2,1,11,materials/images/redA4.png,Alpha,Alpha,TRUE,8.862341,11,FALSE,5
11013,training_phase_1,2,1,12,materials/images/blueB3.png,Beta,Beta,TRUE,1.0994651,11,FALSE,6
11013,training_phase_1,2,2,13,materials/images/redA6.png,Alpha,Alpha,TRUE,5.0853821,11,FALSE,1
11013,training_phase_1,2,2,14,materials/images/redA3.png,Alpha,Alpha,TRUE,3.8322555,11,FALSE,2
11013,training_phase_1,2,2,15,materials/images/blueB4.png,Beta,Alpha,FALSE,0.312121,11,FALSE,2
11013,training_phase_1,2,2,16,materials/images/blueB2.png,Beta,Beta,TRUE,0.946358,11,FALSE,3
11013,training_phase_1,2,2,17,materials/images/redA1.png,Alpha,Alpha,TRUE,0.2618121,11,FALSE,4
11013,training_phase_1,2,2,18,materials/images/blueB3.png,Beta,Beta,TRUE,1.7522124,11,FALSE,5
11013,training_phase_1,2,2,19,materials/images/redA2.png,Alpha,Alpha,TRUE,0.8290635,11,FALSE,6
11013,training_phase_1,2,2,20,materials/images/blueB6.png,Beta,Alpha,FALSE,3.3949253,11,FALSE,6
11013,training_phase_1,2,2,21,materials/images/redA4.png,Alpha,Alpha,TRUE,1.790487199,11,FALSE,7
11013,training_phase_1,2,2,22,materials/images/blueB1.png,Beta,Beta,TRUE,0.326901,11,FALSE,8
11013,training_phase_1,2,2,23,materials/images/blueB5.png,Beta,Beta,TRUE,2.6239222,11,FALSE,9
11013,training_phase_1,2,2,24,materials/images/redA5.png,Alpha,Alpha,TRUE,1.4011781,11,FALSE,10
11013,training_phase_1,2,3,25,materials/images/redA3.png,Alpha,Alpha,TRUE,0.705548001,11,FALSE,1
11013,training_phase_1,2,3,26,materials/images/blueB6.png,Beta,Alpha,FALSE,2.9173498,11,FALSE,1
11013,training_phase_1,2,3,27,materials/images/blueB4.png,Beta,Beta,TRUE,0.313147199,11,FALSE,2
11013,training_phase_1,2,3,28,materials/images/redA4.png,Alpha,Alpha,TRUE,2.1668736,11,FALSE,3
11013,training_phase_1,2,3,29,materials/images/blueB1.png,Beta,Alpha,FALSE,0.3645672,11,FALSE,3
11013,training_phase_1,2,3,30,materials/images/blueB2.png,Beta,Beta,TRUE,1.6289297,11,FALSE,4
11013,training_phase_1,2,3,31,materials/images/redA6.png,Alpha,Alpha,TRUE,4.2182962,11,FALSE,5
11013,training_phase_1,2,3,32,materials/images/redA5.png,Alpha,Alpha,TRUE,1.9861222,11,FALSE,6
11013,training_phase_1,2,3,33,materials/images/blueB5.png,Beta,Beta,TRUE,4.5949468,11,FALSE,7
11013,training_phase_1,2,3,34,materials/images/redA2.png,Alpha,Alpha,TRUE,0.866793999,11,FALSE,8
11013,training_phase_1,2,3,35,materials/images/blueB3.png,Beta,Beta,TRUE,1.1357108,11,FALSE,9
11013,training_phase_1,2,3,36,materials/images/redA1.png,Alpha,Alpha,TRUE,2.46454,11,FALSE,10
11013,training_phase_1,2,4,37,materials/images/redA1.png,Alpha,Alpha,TRUE,0.0228269,11,FALSE,1
11013,training_phase_1,2,4,38,materials/images/redA3.png,Alpha,Alpha,TRUE,0.7059076,11,FALSE,2
11013,training_phase_1,2,4,39,materials/images/blueB2.png,Beta,Beta,TRUE,0.498113099,11,FALSE,3
11013,training_phase_1,2,4,40,materials/images/blueB5.png,Beta,Beta,TRUE,0.126113201,11,FALSE,4
11013,training_phase_1,2,4,41,materials/images/blueB1.png,Beta,Beta,TRUE,0.7090308,11,FALSE,5
11013,training_phase_1,2,4,42,materials/images/blueB3.png,Beta,Beta,TRUE,0.8131188,11,FALSE,6
11013,training_phase_1,2,4,43,materials/images/redA2.png,Alpha,Alpha,TRUE,0.03479,11,FALSE,7
11013,training_phase_1,2,4,44,materials/images/redA4.png,Alpha,Alpha,TRUE,0.8462355,11,FALSE,8
11013,training_phase_1,2,4,45,materials/images/redA5.png,Alpha,Alpha,TRUE,0.0589183,11,FALSE,9
11013,training_phase_1,2,4,46,materials/images/redA6.png,Alpha,Alpha,TRUE,0.7585414,11,FALSE,10
11013,training_phase_1,2,4,47,materials/images/blueB4.png,Beta,Beta,TRUE,3.710933301,11,TRUE,11
11013,training_phase_1,2,4,48,materials/images/blueB6.png,Beta,Beta,TRUE,0.1987212,11,TRUE,12
11013,test_phase,2,1,1,materials/images/yGen4.png,test,Beta,gen,1.1621696,1,TRUE,1
11013,test_phase,2,1,2,materials/images/yGen5.png,test,Beta,gen,4.2537686,1,TRUE,2
11013,test_phase,2,1,3,materials/images/blueB1.png,Beta,Beta,gen,2.4146333,1,TRUE,3
11013,test_phase,2,1,4,materials/images/redA2.png,Alpha,Alpha,gen,0.512343899,1,TRUE,4
11013,test_phase,2,1,5,materials/images/blueB4.png,Beta,Beta,gen,6.4594699,1,TRUE,5
11013,test_phase,2,1,6,materials/images/redA1.png,Alpha,Alpha,gen,1.7129644,1,TRUE,6
11013,test_phase,2,1,7,materials/images/redA5.png,Alpha,Alpha,gen,2.3017314,1,TRUE,7
11013,test_phase,2,1,8,materials/images/redA3.png,Alpha,Alpha,gen,0.2697699,1,TRUE,8
11013,test_phase,2,1,9,materials/images/blueB2.png,Beta,Beta,gen,0.676946701,1,TRUE,9
11013,test_phase,2,1,10,materials/images/blueB5.png,Beta,Beta,gen,1.3499787,1,TRUE,10
11013,test_phase,2,1,11,materials/images/redA4.png,Alpha,Alpha,gen,1.2225217,1,TRUE,11
11013,test_phase,2,1,12,materials/images/redA6.png,Alpha,Alpha,gen,2.1155561,1,TRUE,12
11013,test_phase,2,1,13,materials/images/yGen3.png,test,Beta,gen,2.811443199,1,TRUE,13
11013,test_phase,2,1,14,materials/images/blueB6.png,Beta,Beta,gen,0.5022809,1,TRUE,14
11013,test_phase,2,1,15,materials/images/blueB3.png,Beta,Beta,gen,1.043948701,1,TRUE,15
11013,test_phase,2,1,16,materials/images/yGen1.png,test,Alpha,gen,0.523011601,1,TRUE,16
11013,test_phase,2,1,17,materials/images/yGen2.png,test,Alpha,gen,1.3363039,1,TRUE,17
11013,training_phase_2,2,1,1,materials/images/redA5.png,Alpha,Beta,FALSE,12.3232753,30,FALSE,0
11013,training_phase_2,2,1,2,materials/images/greenD5.png,Delta,Beta,FALSE,0.0887407,30,FALSE,0
11013,training_phase_2,2,1,3,materials/images/blueB6.png,Beta,Gamma,FALSE,0.276603901,30,FALSE,0
11013,training_phase_2,2,1,4,materials/images/redA1.png,Alpha,Alpha,TRUE,0.9464009,30,FALSE,1
11013,training_phase_2,2,1,5,materials/images/greenD4.png,Delta,Delta,TRUE,2.008661199,30,FALSE,2
11013,training_phase_2,2,1,6,materials/images/blackG3.png,Gamma,Gamma,TRUE,0.365775,30,FALSE,3
11013,training_phase_2,2,1,7,materials/images/blueB4.png,Beta,Alpha,FALSE,2.0422585,30,FALSE,3
11013,training_phase_2,2,1,8,materials/images/blackG2.png,Gamma,Gamma,TRUE,0.9869503,30,FALSE,4
11013,training_phase_2,2,1,9,materials/images/redA6.png,Alpha,Beta,FALSE,0.3880555,30,FALSE,4
11013,training_phase_2,2,1,10,materials/images/redA4.png,Alpha,Alpha,TRUE,0.3012298,30,FALSE,5
11013,training_phase_2,2,1,11,materials/images/blackG5.png,Gamma,Alpha,FALSE,1.0217773,30,FALSE,5
11013,training_phase_2,2,1,12,materials/images/greenD2.png,Delta,Gamma,FALSE,2.7835843,30,FALSE,5
11013,training_phase_2,2,1,13,materials/images/greenD6.png,Delta,Delta,TRUE,3.2960203,30,FALSE,6
11013,training_phase_2,2,1,14,materials/images/redA2.png,Alpha,Alpha,TRUE,0.6419275,30,FALSE,7
11013,training_phase_2,2,1,15,materials/images/blueB5.png,Beta,Beta,TRUE,2.4650724,30,FALSE,8
11013,training_phase_2,2,1,16,materials/images/blueB2.png,Beta,Delta,FALSE,5.0961855,30,FALSE,8
11013,training_phase_2,2,1,17,materials/images/blackG6.png,Gamma,Delta,FALSE,2.3600017,30,FALSE,8
11013,training_phase_2,2,1,18,materials/images/blackG4.png,Gamma,Gamma,TRUE,5.64727,30,FALSE,9
11013,training_phase_2,2,1,19,materials/images/greenD1.png,Delta,Delta,TRUE,1.137973499,30,FALSE,10
11013,training_phase_2,2,1,20,materials/images/greenD3.png,Delta,Delta,TRUE,2.175840801,30,FALSE,11
11013,training_phase_2,2,1,21,materials/images/blackG1.png,Gamma,Beta,FALSE,1.060670501,30,FALSE,11
11013,training_phase_2,2,1,22,materials/images/blueB3.png,Beta,Gamma,FALSE,3.8421901,30,FALSE,11
11013,training_phase_2,2,1,23,materials/images/blueB1.png,Beta,Delta,FALSE,1.6712219,30,FALSE,11
11013,training_phase_2,2,1,24,materials/images/redA3.png,Alpha,Alpha,TRUE,2.7180938,30,FALSE,12
11013,training_phase_2,2,2,25,materials/images/greenD6.png,Delta,Delta,TRUE,5.3436465,30,FALSE,1
11013,training_phase_2,2,2,26,materials/images/redA6.png,Alpha,Alpha,TRUE,18.7039283,30,FALSE,2
11013,training_phase_2,2,2,27,materials/images/redA4.png,Alpha,Alpha,TRUE,4.1553492,30,FALSE,3
11013,training_phase_2,2,2,28,materials/images/blackG5.png,Gamma,Gamma,TRUE,1.9944345,30,FALSE,4
11013,training_phase_2,2,2,29,materials/images/greenD1.png,Delta,Beta,FALSE,8.5124912,30,FALSE,4
11013,training_phase_2,2,2,30,materials/images/blueB5.png,Beta,Beta,TRUE,2.757296501,30,FALSE,5
11013,training_phase_2,2,2,31,materials/images/redA1.png,Alpha,Alpha,TRUE,4.4573835,30,FALSE,6
11013,training_phase_2,2,2,32,materials/images/blueB6.png,Beta,Gamma,FALSE,5.3564978,30,FALSE,6
11013,training_phase_2,2,2,33,materials/images/greenD4.png,Delta,Beta,FALSE,6.4725856,30,FALSE,6
11013,training_phase_2,2,2,34,materials/images/blackG2.png,Gamma,Alpha,FALSE,1.4640283,30,FALSE,6
11013,training_phase_2,2,2,35,materials/images/blackG6.png,Gamma,Beta,FALSE,22.1686066,30,FALSE,6
11013,training_phase_2,2,2,36,materials/images/blueB3.png,Beta,Beta,TRUE,22.3333239,30,FALSE,7
11013,training_phase_2,2,2,37,materials/images/blackG4.png,Gamma,Gamma,TRUE,4.2243763,30,FALSE,8
11013,training_phase_2,2,2,38,materials/images/blueB4.png,Beta,Beta,TRUE,5.7066405,30,FALSE,9
11013,training_phase_2,2,2,39,materials/images/redA2.png,Alpha,Delta,FALSE,3.577288901,30,FALSE,9
11013,training_phase_2,2,2,40,materials/images/blackG1.png,Gamma,Alpha,FALSE,2.1477417,30,FALSE,9
11013,training_phase_2,2,2,41,materials/images/greenD3.png,Delta,Gamma,FALSE,6.523652799,30,FALSE,9
11013,training_phase_2,2,2,42,materials/images/greenD2.png,Delta,Gamma,FALSE,21.5590452,30,FALSE,9
11013,training_phase_2,2,2,43,materials/images/greenD5.png,Delta,Gamma,FALSE,3.5777732,30,FALSE,9
11013,training_phase_2,2,2,44,materials/images/redA5.png,Alpha,Beta,FALSE,0.1071336,30,FALSE,9
11013,training_phase_2,2,2,45,materials/images/redA3.png,Alpha,Alpha,TRUE,9.468913799,30,FALSE,10
11013,training_phase_2,2,2,46,materials/images/blackG3.png,Gamma,Alpha,FALSE,2.0094817,30,FALSE,10
11013,training_phase_2,2,2,47,materials/images/blueB2.png,Beta,Alpha,FALSE,2.040457901,30,FALSE,10
11013,training_phase_2,2,2,48,materials/images/blueB1.png,Beta,Beta,TRUE,0.480914299,30,FALSE,11
11015,training_phase_1,2,1,1,materials/images/blueB1.png,Beta,Beta,TRUE,8.0707742,11,FALSE,1
11015,training_phase_1,2,1,2,materials/images/blueB6.png,Beta,Alpha,FALSE,1.7655594,11,FALSE,1
11015,training_phase_1,2,1,3,materials/images/blueB5.png,Beta,Beta,TRUE,0.3967389,11,FALSE,2
11015,training_phase_1,2,1,4,materials/images/blueB4.png,Beta,Beta,TRUE,0.0923892,11,FALSE,3
11015,training_phase_1,2,1,5,materials/images/redA2.png,Alpha,Beta,FALSE,0.020558001,11,FALSE,3
11015,training_phase_1,2,1,6,materials/images/redA3.png,Alpha,Alpha,TRUE,0.3738868,11,FALSE,4
11015,training_phase_1,2,1,7,materials/images/blueB3.png,Beta,Alpha,FALSE,0.4461446,11,FALSE,4
11015,training_phase_1,2,1,8,materials/images/redA5.png,Alpha,Alpha,TRUE,4.1884108,11,FALSE,5
11015,training_phase_1,2,1,9,materials/images/blueB2.png,Beta,Beta,TRUE,1.879259,11,FALSE,6
11015,training_phase_1,2,1,10,materials/images/redA6.png,Alpha,Beta,FALSE,2.0034645,11,FALSE,6
11015,training_phase_1,2,1,11,materials/images/redA4.png,Alpha,Alpha,TRUE,0.5525822,11,FALSE,7
11015,training_phase_1,2,1,12,materials/images/redA1.png,Alpha,Alpha,TRUE,0.2359775,11,FALSE,8
11015,training_phase_1,2,2,13,materials/images/redA4.png,Alpha,Alpha,TRUE,0.903597999,11,FALSE,1
11015,training_phase_1,2,2,14,materials/images/blueB1.png,Beta,Beta,TRUE,0.0272958,11,FALSE,2
11015,training_phase_1,2,2,15,materials/images/redA5.png,Alpha,Alpha,TRUE,0.5341419,11,FALSE,3
11015,training_phase_1,2,2,16,materials/images/blueB3.png,Beta,Beta,TRUE,1.4794543,11,FALSE,4
11015,training_phase_1,2,2,17,materials/images/redA1.png,Alpha,Alpha,TRUE,0.6920107,11,FALSE,5
11015,training_phase_1,2,2,18,materials/images/blueB5.png,Beta,Alpha,FALSE,0.7081058,11,FALSE,5
11015,training_phase_1,2,2,19,materials/images/blueB2.png,Beta,Beta,TRUE,0.4248405,11,FALSE,6
11015,training_phase_1,2,2,20,materials/images/redA6.png,Alpha,Alpha,TRUE,1.830031401,11,FALSE,7
11015,training_phase_1,2,2,21,materials/images/redA3.png,Alpha,Alpha,TRUE,3.3180474,11,FALSE,8
11015,training_phase_1,2,2,22,materials/images/blueB6.png,Beta,Beta,TRUE,2.2431305,11,FALSE,9
11015,training_phase_1,2,2,23,materials/images/blueB4.png,Beta,Alpha,FALSE,1.0319965,11,FALSE,9
11015,training_phase_1,2,2,24,materials/images/redA2.png,Alpha,Alpha,TRUE,0.85479,11,FALSE,10
11015,training_phase_1,2,3,25,materials/images/blueB3.png,Beta,Beta,TRUE,0.2966636,11,FALSE,1
11015,training_phase_1,2,3,26,materials/images/redA2.png,Alpha,Alpha,TRUE,2.4719801,11,FALSE,2
11015,training_phase_1,2,3,27,materials/images/redA6.png,Alpha,Alpha,TRUE,1.709094,11,FALSE,3
11015,training_phase_1,2,3,28,materials/images/redA3.png,Alpha,Alpha,TRUE,1.7085398,11,FALSE,4
11015,training_phase_1,2,3,29,materials/images/redA4.png,Alpha,Alpha,TRUE,1.9344445,11,FALSE,5
11015,training_phase_1,2,3,30,materials/images/blueB1.png,Beta,Beta,TRUE,0.0252143,11,FALSE,6
11015,training_phase_1,2,3,31,materials/images/redA5.png,Alpha,Beta,FALSE,1.6385175,11,FALSE,6
11015,training_phase_1,2,3,32,materials/images/redA1.png,Alpha,Alpha,TRUE,0.6986464,11,FALSE,7
11015,training_phase_1,2,3,33,materials/images/blueB6.png,Beta,Beta,TRUE,1.3211608,11,FALSE,8
11015,training_phase_1,2,3,34,materials/images/blueB2.png,Beta,Beta,TRUE,0.5613429,11,FALSE,9
11015,training_phase_1,2,3,35,materials/images/blueB4.png,Beta,Beta,TRUE,1.618415399,11,FALSE,10
11015,training_phase_1,2,3,36,materials/images/blueB5.png,Beta,Beta,TRUE,0.8157251,11,TRUE,11
11015,test_phase,2,1,1,materials/images/blueB4.png,Beta,Beta,gen,22.3714833,1,TRUE,1
11015,test_phase,2,1,2,materials/images/redA6.png,Alpha,Alpha,gen,1.611843999,1,TRUE,2
11015,test_phase,2,1,3,materials/images/redA3.png,Alpha,Alpha,gen,1.006604101,1,TRUE,3
11015,test_phase,2,1,4,materials/images/blueB3.png,Beta,Beta,gen,0.0747862,1,TRUE,4
11015,test_phase,2,1,5,materials/images/blueB5.png,Beta,Beta,gen,0.6383366,1,TRUE,5
11015,test_phase,2,1,6,materials/images/yGen2.png,test,Alpha,gen,0.1912367,1,TRUE,6
11015,test_phase,2,1,7,materials/images/redA5.png,Alpha,Alpha,gen,0.5134766,1,TRUE,7
11015,test_phase,2,1,8,materials/images/redA1.png,Alpha,Alpha,gen,0.2283533,1,TRUE,8
11015,test_phase,2,1,9,materials/images/blueB6.png,Beta,Beta,gen,0.1657273,1,TRUE,9
11015,test_phase,2,1,10,materials/images/yGen1.png,test,Alpha,gen,0.8786777,1,TRUE,10
11015,test_phase,2,1,11,materials/images/yGen4.png,test,Beta,gen,0.0195696,1,TRUE,11
11015,test_phase,2,1,12,materials/images/yGen3.png,test,Beta,gen,1.5093196,1,TRUE,12
11015,test_phase,2,1,13,materials/images/yGen5.png,test,Beta,gen,1.2310599,1,TRUE,13
11015,test_phase,2,1,14,materials/images/blueB2.png,Beta,Beta,gen,1.5884568,1,TRUE,14
11015,test_phase,2,1,15,materials/images/redA2.png,Alpha,Alpha,gen,1.4277003,1,TRUE,15
11015,test_phase,2,1,16,materials/images/blueB1.png,Beta,Beta,gen,0.137393001,1,TRUE,16
11015,test_phase,2,1,17,materials/images/redA4.png,Alpha,Alpha,gen,1.3287661,1,TRUE,17
11015,training_phase_2,2,1,1,materials/images/blueB5.png,Beta,Beta,TRUE,2.5300174,30,FALSE,1
11015,training_phase_2,2,1,2,materials/images/greenD6.png,Delta,Beta,FALSE,0.847236699,30,FALSE,1
11015,training_phase_2,2,1,3,materials/images/greenD3.png,Delta,Delta,TRUE,1.4913811,30,FALSE,2
11015,training_phase_2,2,1,4,materials/images/greenD2.png,Delta,Delta,TRUE,0.507976101,30,FALSE,3
11015,training_phase_2,2,1,5,materials/images/redA5.png,Alpha,Gamma,FALSE,1.645505,30,FALSE,3
11015,training_phase_2,2,1,6,materials/images/greenD4.png,Delta,Delta,TRUE,1.2312057,30,FALSE,4
11015,training_phase_2,2,1,7,materials/images/blackG6.png,Gamma,Gamma,TRUE,1.0741049,30,FALSE,5
11015,training_phase_2,2,1,8,materials/images/blueB4.png,Beta,Alpha,FALSE,1.554432901,30,FALSE,5
11015,training_phase_2,2,1,9,materials/images/redA6.png,Alpha,Beta,FALSE,1.1367002,30,FALSE,5
11015,training_phase_2,2,1,10,materials/images/blackG1.png,Gamma,Alpha,FALSE,0.0227726,30,FALSE,5
11015,training_phase_2,2,1,11,materials/images/blackG2.png,Gamma,Delta,FALSE,44.8600357,30,FALSE,5
11015,training_phase_2,2,1,12,materials/images/blueB3.png,Beta,Beta,TRUE,3.8402749,30,FALSE,6
11015,training_phase_2,2,1,13,materials/images/blackG4.png,Gamma,Gamma,TRUE,0.7432112,30,FALSE,7
11015,training_phase_2,2,1,14,materials/images/blackG3.png,Gamma,Alpha,FALSE,1.8298693,30,FALSE,7
11015,training_phase_2,2,1,15,materials/images/blueB1.png,Beta,Delta,FALSE,0.5617839,30,FALSE,7
11015,training_phase_2,2,1,16,materials/images/redA4.png,Alpha,Alpha,TRUE,0.9315401,30,FALSE,8
11015,training_phase_2,2,1,17,materials/images/redA2.png,Alpha,Gamma,FALSE,0.8929748,30,FALSE,8
11015,training_phase_2,2,1,18,materials/images/greenD1.png,Delta,Beta,FALSE,1.035419,30,FALSE,8
11015,training_phase_2,2,1,19,materials/images/blueB2.png,Beta,Delta,FALSE,23.8400789,30,FALSE,8
11015,training_phase_2,2,1,20,materials/images/blueB6.png,Beta,Gamma,FALSE,0.1700747,30,FALSE,8
11015,training_phase_2,2,1,21,materials/images/redA3.png,Alpha,Alpha,TRUE,1.221473901,30,FALSE,9
11015,training_phase_2,2,1,22,materials/images/greenD5.png,Delta,Beta,FALSE,1.713719,30,FALSE,9
11015,training_phase_2,2,1,23,materials/images/redA1.png,Alpha,Gamma,FALSE,0.5798284,30,FALSE,9
11015,training_phase_2,2,1,24,materials/images/blackG5.png,Gamma,Gamma,TRUE,0.500839,30,FALSE,10
11015,training_phase_2,2,2,25,materials/images/blueB3.png,Beta,Beta,TRUE,4.674786501,30,FALSE,1
11015,training_phase_2,2,2,26,materials/images/blackG1.png,Gamma,Delta,FALSE,1.043265199,30,FALSE,1
11015,training_phase_2,2,2,27,materials/images/blackG3.png,Gamma,Beta,FALSE,4.2941089,30,FALSE,1
11015,training_phase_2,2,2,28,materials/images/redA6.png,Alpha,Gamma,FALSE,0.023293,30,FALSE,1
11015,training_phase_2,2,2,29,materials/images/redA5.png,Alpha,Alpha,TRUE,1.2055127,30,FALSE,2
11015,training_phase_2,2,2,30,materials/images/blueB2.png,Beta,Gamma,FALSE,0.8827671,30,FALSE,2
11015,training_phase_2,2,2,31,materials/images/blackG4.png,Gamma,Gamma,TRUE,0.6318917,30,FALSE,3
11015,training_phase_2,2,2,32,materials/images/greenD2.png,Delta,Delta,TRUE,2.2608483,30,FALSE,4
11015,training_phase_2,2,2,33,materials/images/redA4.png,Alpha,Beta,FALSE,3.0535611,30,FALSE,4
11015,training_phase_2,2,2,34,materials/images/blueB5.png,Beta,Gamma,FALSE,0.2428166,30,FALSE,4
11015,training_phase_2,2,2,35,materials/images/redA1.png,Alpha,Alpha,TRUE,0.4695591,30,FALSE,5
11015,training_phase_2,2,2,36,materials/images/blueB6.png,Beta,Beta,TRUE,1.937225601,30,FALSE,6
11015,training_phase_2,2,2,37,materials/images/blueB4.png,Beta,Beta,TRUE,4.097663,30,FALSE,7
11015,training_phase_2,2,2,38,materials/images/greenD1.png,Delta,Gamma,FALSE,2.8259911,30,FALSE,7
11015,training_phase_2,2,2,39,materials/images/greenD6.png,Delta,Gamma,FALSE,1.4801504,30,FALSE,7
11015,training_phase_2,2,2,40,materials/images/blackG6.png,Gamma,Gamma,TRUE,0.1061533,30,FALSE,8
11015,training_phase_2,2,2,41,materials/images/greenD4.png,Delta,Delta,TRUE,0.374591,30,FALSE,9
11015,training_phase_2,2,2,42,materials/images/redA3.png,Alpha,Beta,FALSE,3.3218292,30,FALSE,9
11015,training_phase_2,2,2,43,materials/images/greenD5.png,Delta,Delta,TRUE,0.061507801,30,FALSE,10
11015,training_phase_2,2,2,44,materials/images/greenD3.png,Delta,Delta,TRUE,0.1395707,30,FALSE,11
11015,training_phase_2,2,2,45,materials/images/redA2.png,Alpha,Alpha,TRUE,0.4005135,30,FALSE,12
11015,training_phase_2,2,2,46,materials/images/blueB1.png,Beta,Delta,FALSE,1.8676603,30,FALSE,12
11015,training_phase_2,2,2,47,materials/images/blackG2.png,Gamma,Beta,FALSE,0.281647,30,FALSE,12
11015,training_phase_2,2,2,48,materials/images/blackG5.png,Gamma,Gamma,TRUE,1.0084314,30,FALSE,13
11016,training_phase_1,1,1,1,materials/images/redA5.png,Alpha,Beta,FALSE,1.2531098,11,FALSE,0
11016,training_phase_1,1,1,2,materials/images/blueB2.png,Beta,Alpha,FALSE,1.1774765,11,FALSE,0
11016,training_phase_1,1,1,3,materials/images/blueB3.png,Beta,Alpha,FALSE,0.7289652,11,FALSE,0
11016,training_phase_1,1,1,4,materials/images/redA6.png,Alpha,Alpha,TRUE,1.3666364,11,FALSE,1
11016,training_phase_1,1,1,5,materials/images/blueB6.png,Beta,Alpha,FALSE,4.6749368,11,FALSE,1
11016,training_phase_1,1,1,6,materials/images/redA4.png,Alpha,Alpha,TRUE,0.3381479,11,FALSE,2
11016,training_phase_1,1,1,7,materials/images/redA1.png,Alpha,Beta,FALSE,0.687793,11,FALSE,2
11016,training_phase_1,1,1,8,materials/images/redA3.png,Alpha,Alpha,TRUE,0.4640485,11,FALSE,3
11016,training_phase_1,1,1,9,materials/images/blueB1.png,Beta,Alpha,FALSE,0.8055112,11,FALSE,3
11016,training_phase_1,1,1,10,materials/images/blueB5.png,Beta,Alpha,FALSE,1.536472,11,FALSE,3
11016,training_phase_1,1,1,11,materials/images/blueB4.png,Beta,Alpha,FALSE,0.6156781,11,FALSE,3
11016,training_phase_1,1,1,12,materials/images/redA2.png,Alpha,Alpha,TRUE,1.3293717,11,FALSE,4
11016,training_phase_1,1,2,13,materials/images/blueB2.png,Beta,Beta,TRUE,0.4359298,11,FALSE,1
11016,training_phase_1,1,2,14,materials/images/redA4.png,Alpha,Alpha,TRUE,0.6416098,11,FALSE,2
11016,training_phase_1,1,2,15,materials/images/blueB3.png,Beta,Beta,TRUE,0.4227491,11,FALSE,3
11016,training_phase_1,1,2,16,materials/images/blueB1.png,Beta,Beta,TRUE,0.4977715,11,FALSE,4
11016,training_phase_1,1,2,17,materials/images/blueB4.png,Beta,Alpha,FALSE,1.4587203,11,FALSE,4
11016,training_phase_1,1,2,18,materials/images/redA2.png,Alpha,Alpha,TRUE,0.3791578,11,FALSE,5
11016,training_phase_1,1,2,19,materials/images/redA3.png,Alpha,Beta,FALSE,0.5348614,11,FALSE,5
11016,training_phase_1,1,2,20,materials/images/redA5.png,Alpha,Alpha,TRUE,0.6479419,11,FALSE,6
11016,training_phase_1,1,2,21,materials/images/redA1.png,Alpha,Alpha,TRUE,0.3200965,11,FALSE,7
11016,training_phase_1,1,2,22,materials/images/blueB5.png,Beta,Beta,TRUE,1.0543076,11,FALSE,8
11016,training_phase_1,1,2,23,materials/images/blueB6.png,Beta,Beta,TRUE,0.8512199,11,FALSE,9
11016,training_phase_1,1,2,24,materials/images/redA6.png,Alpha,Alpha,TRUE,0.1624128,11,FALSE,10
11016,training_phase_1,1,3,25,materials/images/blueB5.png,Beta,Beta,TRUE,1.2057236,11,FALSE,1
11016,training_phase_1,1,3,26,materials/images/redA2.png,Alpha,Alpha,TRUE,0.018385,11,FALSE,2
11016,training_phase_1,1,3,27,materials/images/blueB3.png,Beta,Alpha,FALSE,1.4517877,11,FALSE,2
11016,training_phase_1,1,3,28,materials/images/blueB2.png,Beta,Beta,TRUE,0.8431238,11,FALSE,3
11016,training_phase_1,1,3,29,materials/images/redA1.png,Alpha,Alpha,TRUE,0.4990256,11,FALSE,4
11016,training_phase_1,1,3,30,materials/images/redA6.png,Alpha,Beta,FALSE,2.8308033,11,FALSE,4
11016,training_phase_1,1,3,31,materials/images/redA3.png,Alpha,Alpha,TRUE,0.0970323,11,FALSE,5
11016,training_phase_1,1,3,32,materials/images/blueB4.png,Beta,Alpha,FALSE,2.3324239,11,FALSE,5
11016,training_phase_1,1,3,33,materials/images/blueB6.png,Beta,Beta,TRUE,0.217789,11,FALSE,6
11016,training_phase_1,1,3,34,materials/images/redA5.png,Alpha,Alpha,TRUE,1.8875805,11,FALSE,7
11016,training_phase_1,1,3,35,materials/images/redA4.png,Alpha,Alpha,TRUE,0.0220911,11,FALSE,8
11016,training_phase_1,1,3,36,materials/images/blueB1.png,Beta,Beta,TRUE,0.0229564,11,FALSE,9
11016,training_phase_1,1,4,37,materials/images/blueB4.png,Beta,Beta,TRUE,2.4932698,11,FALSE,1
11016,training_phase_1,1,4,38,materials/images/redA4.png,Alpha,Alpha,TRUE,1.1471275,11,FALSE,2
11016,training_phase_1,1,4,39,materials/images/redA5.png,Alpha,Alpha,TRUE,0.6336309,11,FALSE,3
11016,training_phase_1,1,4,40,materials/images/redA6.png,Alpha,Alpha,TRUE,0.1623321,11,FALSE,4
11016,training_phase_1,1,4,41,materials/images/blueB6.png,Beta,Beta,TRUE,0.2395997,11,FALSE,5
11016,training_phase_1,1,4,42,materials/images/blueB3.png,Beta,Beta,TRUE,0.0178234,11,FALSE,6
11016,training_phase_1,1,4,43,materials/images/redA3.png,Alpha,Alpha,TRUE,1.3655069,11,FALSE,7
11016,training_phase_1,1,4,44,materials/images/blueB5.png,Beta,Beta,TRUE,0.4288012,11,FALSE,8
11016,training_phase_1,1,4,45,materials/images/redA1.png,Alpha,Alpha,TRUE,0.5102023,11,FALSE,9
11016,training_phase_1,1,4,46,materials/images/redA2.png,Alpha,Alpha,TRUE,0.1475727,11,FALSE,10
11016,training_phase_1,1,4,47,materials/images/blueB2.png,Beta,Beta,TRUE,2.4014704,11,TRUE,11
11016,training_phase_1,1,4,48,materials/images/blueB1.png,Beta,Beta,TRUE,0.0187288,11,TRUE,12
11016,test_phase,1,1,1,materials/images/blueB6.png,Beta,Beta,gen,4.5700768,1,TRUE,1
11016,test_phase,1,1,2,materials/images/redA6.png,Alpha,Alpha,gen,0.2658946,1,TRUE,2
11016,test_phase,1,1,3,materials/images/blueB4.png,Beta,Alpha,gen,0.2870608,1,TRUE,3
11016,test_phase,1,1,4,materials/images/yGen4.png,test,Beta,gen,1.6137631,1,TRUE,4
11016,test_phase,1,1,5,materials/images/redA1.png,Alpha,Alpha,gen,1.7210212,1,TRUE,5
11016,test_phase,1,1,6,materials/images/blueB1.png,Beta,Alpha,gen,0.4505766,1,TRUE,6
11016,test_phase,1,1,7,materials/images/redA4.png,Alpha,Alpha,gen,2.2810961,1,TRUE,7
11016,test_phase,1,1,8,materials/images/yGen5.png,test,Beta,gen,0.0599671,1,TRUE,8
11016,test_phase,1,1,9,materials/images/blueB5.png,Beta,Alpha,gen,0.0225202,1,TRUE,9
11016,test_phase,1,1,10,materials/images/yGen3.png,test,Alpha,gen,3.5570633,1,TRUE,10
11016,test_phase,1,1,11,materials/images/redA5.png,Alpha,Alpha,gen,0.0222749,1,TRUE,11
11016,test_phase,1,1,12,materials/images/blueB3.png,Beta,Beta,gen,0.9235077,1,TRUE,12
11016,test_phase,1,1,13,materials/images/yGen2.png,test,Alpha,gen,0.0223576,1,TRUE,13
11016,test_phase,1,1,14,materials/images/yGen1.png,test,Alpha,gen,0.3269863,1,TRUE,14
11016,test_phase,1,1,15,materials/images/redA2.png,Alpha,Alpha,gen,0.0224675,1,TRUE,15
11016,test_phase,1,1,16,materials/images/redA3.png,Alpha,Alpha,gen,0.0182275,1,TRUE,16
11016,test_phase,1,1,17,materials/images/blueB2.png,Beta,Beta,gen,0.2122423,1,TRUE,17
11016,training_phase_2,1,1,1,materials/images/blueB3.png,Beta,Beta,TRUE,1.6401883,30,FALSE,1
11016,training_phase_2,1,1,2,materials/images/redA1.png,Alpha,Gamma,FALSE,1.6958513,30,FALSE,1
11016,training_phase_2,1,1,3,materials/images/redA5.png,Alpha,Alpha,TRUE,1.6760147,30,FALSE,2
11016,training_phase_2,1,1,4,materials/images/blueB1.png,Beta,Beta,TRUE,1.1131301,30,FALSE,3
11016,training_phase_2,1,1,5,materials/images/redA3.png,Alpha,Alpha,TRUE,0.355,30,FALSE,4
11016,training_phase_2,1,1,6,materials/images/blueB5.png,Beta,Beta,TRUE,0.502132,30,FALSE,5
11016,training_phase_2,1,1,7,materials/images/blackG1.png,Gamma,Beta,FALSE,2.4417873,30,FALSE,5
11016,training_phase_2,1,1,8,materials/images/blueB4.png,Beta,Alpha,FALSE,0.4688048,30,FALSE,5
11016,training_phase_2,1,1,9,materials/images/redA4.png,Alpha,Alpha,TRUE,0.5965465,30,FALSE,6
11016,training_phase_2,1,1,10,materials/images/blackG4.png,Gamma,Beta,FALSE,2.4916295,30,FALSE,6
11016,training_phase_2,1,1,11,materials/images/redA6.png,Alpha,Beta,FALSE,1.3083005,30,FALSE,6
11016,training_phase_2,1,1,12,materials/images/greenD5.png,Delta,Beta,FALSE,0.0222817,30,FALSE,6
11016,training_phase_2,1,1,13,materials/images/greenD4.png,Delta,Delta,TRUE,0.0186359,30,FALSE,7
11016,training_phase_2,1,1,14,materials/images/blackG6.png,Gamma,Gamma,TRUE,0.0231074,30,FALSE,8
11016,training_phase_2,1,1,15,materials/images/blackG3.png,Gamma,Beta,FALSE,2.3737612,30,FALSE,8
11016,training_phase_2,1,1,16,materials/images/greenD2.png,Delta,Alpha,FALSE,2.5371829,30,FALSE,8
11016,training_phase_2,1,1,17,materials/images/blueB6.png,Beta,Gamma,FALSE,16.9661715,30,FALSE,8
11016,training_phase_2,1,1,18,materials/images/greenD1.png,Delta,Delta,TRUE,0.0434026,30,FALSE,9
11016,training_phase_2,1,1,19,materials/images/blackG5.png,Gamma,Alpha,FALSE,0.1232033,30,FALSE,9
11016,training_phase_2,1,1,20,materials/images/blueB2.png,Beta,Gamma,FALSE,3.3265576,30,FALSE,9
11016,training_phase_2,1,1,21,materials/images/redA2.png,Alpha,Alpha,TRUE,0.4837544,30,FALSE,10
11016,training_phase_2,1,1,22,materials/images/greenD3.png,Delta,Beta,FALSE,0.4607386,30,FALSE,10
11016,training_phase_2,1,1,23,materials/images/greenD6.png,Delta,Beta,FALSE,0.0908621,30,FALSE,10
11016,training_phase_2,1,1,24,materials/images/blackG2.png,Gamma,Gamma,TRUE,0.3813767,30,FALSE,11
11016,training_phase_2,1,2,25,materials/images/blackG1.png,Gamma,Beta,FALSE,4.8109297,30,FALSE,0
11016,training_phase_2,1,2,26,materials/images/blackG2.png,Gamma,Gamma,TRUE,11.9446157,30,FALSE,1
11016,training_phase_2,1,2,27,materials/images/redA2.png,Alpha,Gamma,FALSE,1.0839133,30,FALSE,1
11016,training_phase_2,1,2,28,materials/images/blueB3.png,Beta,Delta,FALSE,1.6206915,30,FALSE,1
11016,training_phase_2,1,2,29,materials/images/greenD4.png,Delta,Delta,TRUE,0.5937502,30,FALSE,2
11016,training_phase_2,1,2,30,materials/images/greenD1.png,Delta,Beta,FALSE,2.0697379,30,FALSE,2
11016,training_phase_2,1,2,31,materials/images/redA1.png,Alpha,Alpha,TRUE,0.0345878,30,FALSE,3
11016,training_phase_2,1,2,32,materials/images/greenD3.png,Delta,Delta,TRUE,4.1448886,30,FALSE,4
11016,training_phase_2,1,2,33,materials/images/greenD5.png,Delta,Delta,TRUE,1.0039198,30,FALSE,5
11016,training_phase_2,1,2,34,materials/images/blueB6.png,Beta,Gamma,FALSE,0.836071,30,FALSE,5
11016,training_phase_2,1,2,35,materials/images/redA4.png,Alpha,Alpha,TRUE,0.2176544,30,FALSE,6
11016,training_phase_2,1,2,36,materials/images/blackG5.png,Gamma,Gamma,TRUE,0.0183043,30,FALSE,7
11016,training_phase_2,1,2,37,materials/images/redA6.png,Alpha,Beta,FALSE,2.8180789,30,FALSE,7
11016,training_phase_2,1,2,38,materials/images/greenD6.png,Delta,Beta,FALSE,0.5470291,30,FALSE,7
11016,training_phase_2,1,2,39,materials/images/blackG6.png,Gamma,Gamma,TRUE,0.0185838,30,FALSE,8
11016,training_phase_2,1,2,40,materials/images/greenD2.png,Delta,Delta,TRUE,0.4794469,30,FALSE,9
11016,training_phase_2,1,2,41,materials/images/blackG4.png,Gamma,Alpha,FALSE,1.6154101,30,FALSE,9
11016,training_phase_2,1,2,42,materials/images/redA5.png,Alpha,Alpha,TRUE,0.281381,30,FALSE,10
11016,training_phase_2,1,2,43,materials/images/blueB2.png,Beta,Delta,FALSE,6.4459733,30,FALSE,10
11016,training_phase_2,1,2,44,materials/images/blueB1.png,Beta,Delta,FALSE,0.3824487,30,FALSE,10
11016,training_phase_2,1,2,45,materials/images/blueB5.png,Beta,Alpha,FALSE,3.4267433,30,FALSE,10
11016,training_phase_2,1,2,46,materials/images/redA3.png,Alpha,Alpha,TRUE,0.1548586,30,FALSE,11
11016,training_phase_2,1,2,47,materials/images/blackG3.png,Gamma,Gamma,TRUE,2.9938666,30,FALSE,12
11016,training_phase_2,1,2,48,materials/images/blueB4.png,Beta,Alpha,FALSE,0.7040757,30,FALSE,12
11019,training_phase_1,2,1,1,materials/images/blueB2.png,Beta,Beta,TRUE,2.5683625,11,FALSE,1
11019,training_phase_1,2,1,2,materials/images/redA2.png,Alpha,Beta,FALSE,0.895443,11,FALSE,1
11019,training_phase_1,2,1,3,materials/images/blueB5.png,Beta,Alpha,FALSE,1.1022627,11,FALSE,1
11019,training_phase_1,2,1,4,materials/images/redA1.png,Alpha,Alpha,TRUE,0.9052142,11,FALSE,2
11019,training_phase_1,2,1,5,materials/images/redA6.png,Alpha,Beta,FALSE,1.3845536,11,FALSE,2
11019,training_phase_1,2,1,6,materials/images/redA3.png,Alpha,Beta,FALSE,0.5344426,11,FALSE,2
11019,training_phase_1,2,1,7,materials/images/blueB4.png,Beta,Beta,TRUE,1.2080134,11,FALSE,3
11019,training_phase_1,2,1,8,materials/images/blueB1.png,Beta,Alpha,FALSE,0.5724429,11,FALSE,3
11019,training_phase_1,2,1,9,materials/images/redA5.png,Alpha,Alpha,TRUE,3.4334315,11,FALSE,4
11019,training_phase_1,2,1,10,materials/images/blueB3.png,Beta,Beta,TRUE,1.1422505,11,FALSE,5
11019,training_phase_1,2,1,11,materials/images/redA4.png,Alpha,Alpha,TRUE,0.4489387,11,FALSE,6
11019,training_phase_1,2,1,12,materials/images/blueB6.png,Beta,Alpha,FALSE,1.9635634,11,FALSE,6
11019,training_phase_1,2,2,13,materials/images/redA1.png,Alpha,Alpha,TRUE,0.8308738,11,FALSE,1
11019,training_phase_1,2,2,14,materials/images/blueB5.png,Beta,Beta,TRUE,0.7953375,11,FALSE,2
11019,training_phase_1,2,2,15,materials/images/blueB2.png,Beta,Alpha,FALSE,0.5292083,11,FALSE,2
11019,training_phase_1,2,2,16,materials/images/redA3.png,Alpha,Alpha,TRUE,0.7701074,11,FALSE,3
11019,training_phase_1,2,2,17,materials/images/redA6.png,Alpha,Beta,FALSE,0.949343,11,FALSE,3
11019,training_phase_1,2,2,18,materials/images/redA2.png,Alpha,Alpha,TRUE,0.2981304,11,FALSE,4
11019,training_phase_1,2,2,19,materials/images/blueB6.png,Beta,Beta,TRUE,2.2287692,11,FALSE,5
11019,training_phase_1,2,2,20,materials/images/blueB1.png,Beta,Beta,TRUE,4.6719156,11,FALSE,6
11019,training_phase_1,2,2,21,materials/images/redA4.png,Alpha,Alpha,TRUE,2.3873363,11,FALSE,7
11019,training_phase_1,2,2,22,materials/images/blueB3.png,Beta,Beta,TRUE,0.919909,11,FALSE,8
11019,training_phase_1,2,2,23,materials/images/blueB4.png,Beta,Beta,TRUE,1.9266786,11,FALSE,9
11019,training_phase_1,2,2,24,materials/images/redA5.png,Alpha,Alpha,TRUE,2.108467,11,FALSE,10
11019,training_phase_1,2,3,25,materials/images/blueB4.png,Beta,Beta,TRUE,0.7174356,11,FALSE,1
11019,training_phase_1,2,3,26,materials/images/redA3.png,Alpha,Alpha,TRUE,0.4223697,11,FALSE,2
11019,training_phase_1,2,3,27,materials/images/redA1.png,Alpha,Alpha,TRUE,1.0727947,11,FALSE,3
11019,training_phase_1,2,3,28,materials/images/redA5.png,Alpha,Beta,FALSE,0.1413485,11,FALSE,3
11019,training_phase_1,2,3,29,materials/images/redA6.png,Alpha,Alpha,TRUE,0.0235088,11,FALSE,4
11019,training_phase_1,2,3,30,materials/images/redA2.png,Alpha,Alpha,TRUE,0.7431626,11,FALSE,5
11019,training_phase_1,2,3,31,materials/images/blueB3.png,Beta,Beta,TRUE,1.5189692,11,FALSE,6
11019,training_phase_1,2,3,32,materials/images/blueB1.png,Beta,Beta,TRUE,0.4355309,11,FALSE,7
11019,training_phase_1,2,3,33,materials/images/redA4.png,Alpha,Beta,FALSE,1.7694669,11,FALSE,7
11019,training_phase_1,2,3,34,materials/images/blueB2.png,Beta,Beta,TRUE,1.0762629,11,FALSE,8
11019,training_phase_1,2,3,35,materials/images/blueB5.png,Beta,Beta,TRUE,0.7153852,11,FALSE,9
11019,training_phase_1,2,3,36,materials/images/blueB6.png,Beta,Beta,TRUE,0.0289066,11,FALSE,10
11019,training_phase_1,2,4,37,materials/images/blueB3.png,Beta,Beta,TRUE,1.0818607,11,FALSE,1
11019,training_phase_1,2,4,38,materials/images/blueB2.png,Beta,Beta,TRUE,0.6387312,11,FALSE,2
11019,training_phase_1,2,4,39,materials/images/redA4.png,Alpha,Alpha,TRUE,1.0790076,11,FALSE,3
11019,training_phase_1,2,4,40,materials/images/redA6.png,Alpha,Alpha,TRUE,0.9448983,11,FALSE,4
11019,training_phase_1,2,4,41,materials/images/blueB6.png,Beta,Beta,TRUE,0.1549205,11,FALSE,5
11019,training_phase_1,2,4,42,materials/images/redA3.png,Alpha,Alpha,TRUE,4.9976266,11,FALSE,6
11019,training_phase_1,2,4,43,materials/images/blueB4.png,Beta,Beta,TRUE,0.7178782,11,FALSE,7
11019,training_phase_1,2,4,44,materials/images/redA5.png,Alpha,Beta,FALSE,1.7798434,11,FALSE,7
11019,training_phase_1,2,4,45,materials/images/blueB5.png,Beta,Beta,TRUE,2.2961719,11,FALSE,8
11019,training_phase_1,2,4,46,materials/images/redA1.png,Alpha,Alpha,TRUE,0.3523799,11,FALSE,9
11019,training_phase_1,2,4,47,materials/images/blueB1.png,Beta,Beta,TRUE,0.0434039,11,FALSE,10
11019,training_phase_1,2,4,48,materials/images/redA2.png,Alpha,Alpha,TRUE,1.8432493,11,TRUE,11
11019,test_phase,2,1,1,materials/images/yGen4.png,test,Beta,gen,3.0268137,1,TRUE,1
11019,test_phase,2,1,2,materials/images/blueB2.png,Beta,Beta,gen,1.7094425,1,TRUE,2
11019,test_phase,2,1,3,materials/images/redA4.png,Alpha,Alpha,gen,0.225107,1,TRUE,3
11019,test_phase,2,1,4,materials/images/yGen1.png,test,Alpha,gen,0.2415819,1,TRUE,4
11019,test_phase,2,1,5,materials/images/redA1.png,Alpha,Alpha,gen,0.2530363,1,TRUE,5
11019,test_phase,2,1,6,materials/images/blueB6.png,Beta,Beta,gen,0.2489641,1,TRUE,6
11019,test_phase,2,1,7,materials/images/blueB1.png,Beta,Beta,gen,0.0805172,1,TRUE,7
11019,test_phase,2,1,8,materials/images/yGen5.png,test,Beta,gen,2.7385903,1,TRUE,8
11019,test_phase,2,1,9,materials/images/redA2.png,Alpha,Alpha,gen,0.3037403,1,TRUE,9
11019,test_phase,2,1,10,materials/images/blueB3.png,Beta,Beta,gen,1.6714018,1,TRUE,10
11019,test_phase,2,1,11,materials/images/blueB4.png,Beta,Beta,gen,0.9156127,1,TRUE,11
11019,test_phase,2,1,12,materials/images/yGen3.png,test,Beta,gen,1.238351,1,TRUE,12
11019,test_phase,2,1,13,materials/images/redA5.png,Alpha,Alpha,gen,0.2422046,1,TRUE,13
11019,test_phase,2,1,14,materials/images/redA3.png,Alpha,Alpha,gen,0.0577814,1,TRUE,14
11019,test_phase,2,1,15,materials/images/redA6.png,Alpha,Beta,gen,1.7265372,1,TRUE,15
11019,test_phase,2,1,16,materials/images/yGen2.png,test,Alpha,gen,0.5285086,1,TRUE,16
11019,test_phase,2,1,17,materials/images/blueB5.png,Beta,Beta,gen,0.0838682,1,TRUE,17
11019,training_phase_2,2,1,1,materials/images/greenD4.png,Delta,Beta,FALSE,1.1423714,30,FALSE,0
11019,training_phase_2,2,1,2,materials/images/blueB5.png,Beta,Beta,TRUE,0.1125298,30,FALSE,1
11019,training_phase_2,2,1,3,materials/images/redA6.png,Alpha,Alpha,TRUE,0.9572468,30,FALSE,2
11019,training_phase_2,2,1,4,materials/images/blackG5.png,Gamma,Gamma,TRUE,1.4335917,30,FALSE,3
11019,training_phase_2,2,1,5,materials/images/blueB2.png,Beta,Delta,FALSE,0.6556737,30,FALSE,3
11019,training_phase_2,2,1,6,materials/images/blueB6.png,Beta,Delta,FALSE,0.909764,30,FALSE,3
11019,training_phase_2,2,1,7,materials/images/greenD5.png,Delta,Delta,TRUE,2.2328355,30,FALSE,4
11019,training_phase_2,2,1,8,materials/images/blackG3.png,Gamma,Beta,FALSE,0.622477,30,FALSE,4
11019,training_phase_2,2,1,9,materials/images/blackG1.png,Gamma,Gamma,TRUE,0.6454304,30,FALSE,5
11019,training_phase_2,2,1,10,materials/images/blackG6.png,Gamma,Beta,FALSE,1.8590063,30,FALSE,5
11019,training_phase_2,2,1,11,materials/images/redA1.png,Alpha,Alpha,TRUE,0.6750545,30,FALSE,6
11019,training_phase_2,2,1,12,materials/images/blackG4.png,Gamma,Alpha,FALSE,2.1279603,30,FALSE,6
11019,training_phase_2,2,1,13,materials/images/blueB4.png,Beta,Beta,TRUE,8.5563311,30,FALSE,7
11019,training_phase_2,2,1,14,materials/images/greenD3.png,Delta,Delta,TRUE,3.4732587,30,FALSE,8
11019,training_phase_2,2,1,15,materials/images/blueB3.png,Beta,Delta,FALSE,1.2145877,30,FALSE,8
11019,training_phase_2,2,1,16,materials/images/greenD1.png,Delta,Beta,FALSE,0.0201917,30,FALSE,8
11019,training_phase_2,2,1,17,materials/images/redA5.png,Alpha,Gamma,FALSE,1.8240016,30,FALSE,8
11019,training_phase_2,2,1,18,materials/images/redA2.png,Alpha,Alpha,TRUE,0.1437282,30,FALSE,9
11019,training_phase_2,2,1,19,materials/images/redA4.png,Alpha,Gamma,FALSE,2.3591048,30,FALSE,9
11019,training_phase_2,2,1,20,materials/images/blackG2.png,Gamma,Beta,FALSE,3.1581935,30,FALSE,9
11019,training_phase_2,2,1,21,materials/images/redA3.png,Alpha,Alpha,TRUE,0.4006728,30,FALSE,10
11019,training_phase_2,2,1,22,materials/images/greenD2.png,Delta,Beta,FALSE,2.6264874,30,FALSE,10
11019,training_phase_2,2,1,23,materials/images/blueB1.png,Beta,Delta,FALSE,0.849315,30,FALSE,10
11019,training_phase_2,2,1,24,materials/images/greenD6.png,Delta,Beta,FALSE,1.7304994,30,FALSE,10
11019,training_phase_2,2,2,25,materials/images/blackG2.png,Gamma,Delta,FALSE,7.0223379,30,FALSE,0
11019,training_phase_2,2,2,26,materials/images/blueB1.png,Beta,Delta,FALSE,0.0917217,30,FALSE,0
11019,training_phase_2,2,2,27,materials/images/greenD4.png,Delta,Beta,FALSE,7.6003342,30,FALSE,0
11019,training_phase_2,2,2,28,materials/images/blueB4.png,Beta,Alpha,FALSE,1.4214358,30,FALSE,0
11019,training_phase_2,2,2,29,materials/images/blueB6.png,Beta,Delta,FALSE,1.5675532,30,FALSE,0
11019,training_phase_2,2,2,30,materials/images/redA5.png,Alpha,Gamma,FALSE,1.4305152,30,FALSE,0
11019,training_phase_2,2,2,31,materials/images/greenD1.png,Delta,Delta,TRUE,1.7006474,30,FALSE,1
11019,training_phase_2,2,2,32,materials/images/greenD5.png,Delta,Beta,FALSE,1.9756293,30,FALSE,1
11019,training_phase_2,2,2,33,materials/images/blueB3.png,Beta,Beta,TRUE,1.4196512,30,FALSE,2
11019,training_phase_2,2,2,34,materials/images/blueB2.png,Beta,Beta,TRUE,2.2298135,30,FALSE,3
11019,training_phase_2,2,2,35,materials/images/blackG4.png,Gamma,Gamma,TRUE,1.7862363,30,FALSE,4
11019,training_phase_2,2,2,36,materials/images/redA4.png,Alpha,Alpha,TRUE,0.9454826,30,FALSE,5
11019,training_phase_2,2,2,37,materials/images/blackG5.png,Gamma,Gamma,TRUE,0.4610418,30,FALSE,6
11019,training_phase_2,2,2,38,materials/images/greenD2.png,Delta,Delta,TRUE,0.7727027,30,FALSE,7
11019,training_phase_2,2,2,39,materials/images/redA1.png,Alpha,Alpha,TRUE,0.1536944,30,FALSE,8
11019,training_phase_2,2,2,40,materials/images/redA3.png,Alpha,Gamma,FALSE,0.3966533,30,FALSE,8
11019,training_phase_2,2,2,41,materials/images/greenD6.png,Delta,Beta,FALSE,0.9165166,30,FALSE,8
11019,training_phase_2,2,2,42,materials/images/blueB5.png,Beta,Gamma,FALSE,1.925941,30,FALSE,8
11019,training_phase_2,2,2,43,materials/images/redA2.png,Alpha,Alpha,TRUE,0.0795606,30,FALSE,9
11019,training_phase_2,2,2,44,materials/images/blackG3.png,Gamma,Beta,FALSE,2.2082773,30,FALSE,9
11019,training_phase_2,2,2,45,materials/images/greenD3.png,Delta,Delta,TRUE,9.7871322,30,FALSE,10
11019,training_phase_2,2,2,46,materials/images/blackG1.png,Gamma,Beta,FALSE,0.9998043,30,FALSE,10
11019,training_phase_2,2,2,47,materials/images/blackG6.png,Gamma,Alpha,FALSE,0.1154913,30,FALSE,10
11019,training_phase_2,2,2,48,materials/images/redA6.png,Alpha,Gamma,FALSE,0.9321901,30,FALSE,10
11021,training_phase_1,2,1,1,materials/images/blueB4.png,Beta,Alpha,FALSE,1.9743739,11,FALSE,0
11021,training_phase_1,2,1,2,materials/images/blueB2.png,Beta,Beta,TRUE,0.9183569,11,FALSE,1
11021,training_phase_1,2,1,3,materials/images/blueB6.png,Beta,Beta,TRUE,0.9440805,11,FALSE,2
11021,training_phase_1,2,1,4,materials/images/redA6.png,Alpha,Beta,FALSE,0.487107,11,FALSE,2
11021,training_phase_1,2,1,5,materials/images/redA1.png,Alpha,Alpha,TRUE,1.0910052,11,FALSE,3
11021,training_phase_1,2,1,6,materials/images/redA2.png,Alpha,Alpha,TRUE,0.3179237,11,FALSE,4
11021,training_phase_1,2,1,7,materials/images/blueB3.png,Beta,Beta,TRUE,0.0629508,11,FALSE,5
11021,training_phase_1,2,1,8,materials/images/redA3.png,Alpha,Alpha,TRUE,1.6800851,11,FALSE,6
11021,training_phase_1,2,1,9,materials/images/blueB5.png,Beta,Beta,TRUE,0.4621476,11,FALSE,7
11021,training_phase_1,2,1,10,materials/images/redA5.png,Alpha,Beta,FALSE,1.105871,11,FALSE,7
11021,training_phase_1,2,1,11,materials/images/redA4.png,Alpha,Alpha,TRUE,0.6861769,11,FALSE,8
11021,training_phase_1,2,1,12,materials/images/blueB1.png,Beta,Alpha,FALSE,0.6184275,11,FALSE,8
11021,training_phase_1,2,2,13,materials/images/blueB2.png,Beta,Beta,TRUE,1.5851447,11,FALSE,1
11021,training_phase_1,2,2,14,materials/images/blueB6.png,Beta,Beta,TRUE,0.7498241,11,FALSE,2
11021,training_phase_1,2,2,15,materials/images/redA1.png,Alpha,Alpha,TRUE,0.3079435,11,FALSE,3
11021,training_phase_1,2,2,16,materials/images/redA2.png,Alpha,Alpha,TRUE,0.4584524,11,FALSE,4
11021,training_phase_1,2,2,17,materials/images/blueB3.png,Beta,Alpha,FALSE,1.656525,11,FALSE,4
11021,training_phase_1,2,2,18,materials/images/redA3.png,Alpha,Beta,FALSE,0.9615771,11,FALSE,4
11021,training_phase_1,2,2,19,materials/images/redA4.png,Alpha,Alpha,TRUE,0.7636715,11,FALSE,5
11021,training_phase_1,2,2,20,materials/images/redA5.png,Alpha,Alpha,TRUE,2.0734617,11,FALSE,6
11021,training_phase_1,2,2,21,materials/images/blueB5.png,Beta,Beta,TRUE,1.7248126,11,FALSE,7
11021,training_phase_1,2,2,22,materials/images/blueB1.png,Beta,Beta,TRUE,3.5408771,11,FALSE,8
11021,training_phase_1,2,2,23,materials/images/blueB4.png,Beta,Alpha,FALSE,0.0327979,11,FALSE,8
11021,training_phase_1,2,2,24,materials/images/redA6.png,Alpha,Alpha,TRUE,0.9862005,11,FALSE,9
11021,training_phase_1,2,3,25,materials/images/redA6.png,Alpha,Alpha,TRUE,0.6483375,11,FALSE,1
11021,training_phase_1,2,3,26,materials/images/blueB5.png,Beta,Beta,TRUE,0.9134207,11,FALSE,2
11021,training_phase_1,2,3,27,materials/images/blueB2.png,Beta,Alpha,FALSE,0.5968788,11,FALSE,2
11021,training_phase_1,2,3,28,materials/images/redA1.png,Alpha,Beta,FALSE,13.6121096,11,FALSE,2
11021,training_phase_1,2,3,29,materials/images/blueB6.png,Beta,Beta,TRUE,0.5164547,11,FALSE,3
11021,training_phase_1,2,3,30,materials/images/redA5.png,Alpha,Beta,FALSE,0.5169519,11,FALSE,3
11021,training_phase_1,2,3,31,materials/images/redA2.png,Alpha,Alpha,TRUE,0.9853996,11,FALSE,4
11021,training_phase_1,2,3,32,materials/images/blueB4.png,Beta,Alpha,FALSE,0.1830856,11,FALSE,4
11021,training_phase_1,2,3,33,materials/images/redA4.png,Alpha,Beta,FALSE,0.0241207,11,FALSE,4
11021,training_phase_1,2,3,34,materials/images/blueB1.png,Beta,Beta,TRUE,0.0860584,11,FALSE,5
11021,training_phase_1,2,3,35,materials/images/blueB3.png,Beta,Alpha,FALSE,2.1020193,11,FALSE,5
11021,training_phase_1,2,3,36,materials/images/redA3.png,Alpha,Alpha,TRUE,3.6267161,11,FALSE,6
11021,training_phase_1,2,4,37,materials/images/blueB2.png,Beta,Beta,TRUE,0.3121738,11,FALSE,1
11021,training_phase_1,2,4,38,materials/images/blueB4.png,Beta,Alpha,FALSE,0.1471156,11,FALSE,1
11021,training_phase_1,2,4,39,materials/images/blueB6.png,Beta,Beta,TRUE,0.9185571,11,FALSE,2
11021,training_phase_1,2,4,40,materials/images/redA5.png,Alpha,Beta,FALSE,2.0876169,11,FALSE,2
11021,training_phase_1,2,4,41,materials/images/redA4.png,Alpha,Alpha,TRUE,1.7231382,11,FALSE,3
11021,training_phase_1,2,4,42,materials/images/redA6.png,Alpha,Alpha,TRUE,0.8825001,11,FALSE,4
11021,training_phase_1,2,4,43,materials/images/blueB1.png,Beta,Beta,TRUE,2.6448238,11,FALSE,5
11021,training_phase_1,2,4,44,materials/images/redA2.png,Alpha,Beta,FALSE,1.6434627,11,FALSE,5
11021,training_phase_1,2,4,45,materials/images/blueB3.png,Beta,Beta,TRUE,1.1579038,11,FALSE,6
11021,training_phase_1,2,4,46,materials/images/blueB5.png,Beta,Beta,TRUE,0.8735493,11,FALSE,7
11021,training_phase_1,2,4,47,materials/images/redA3.png,Alpha,Alpha,TRUE,0.7488521,11,FALSE,8
11021,training_phase_1,2,4,48,materials/images/redA1.png,Alpha,Beta,FALSE,0.2212618,11,FALSE,8
11021,training_phase_1,2,5,49,materials/images/redA4.png,Alpha,Beta,FALSE,0.3671357,11,FALSE,0
11021,training_phase_1,2,5,50,materials/images/blueB5.png,Beta,Alpha,FALSE,0.2784137,11,FALSE,0
11021,training_phase_1,2,5,51,materials/images/redA2.png,Alpha,Beta,FALSE,4.5718989,11,FALSE,0
11021,training_phase_1,2,5,52,materials/images/redA1.png,Alpha,Beta,FALSE,1.3253626,11,FALSE,0
11021,training_phase_1,2,5,53,materials/images/blueB6.png,Beta,Alpha,FALSE,5.1195506,11,FALSE,0
11021,training_phase_1,2,5,54,materials/images/blueB1.png,Beta,Beta,TRUE,0.7061903,11,FALSE,1
11021,training_phase_1,2,5,55,materials/images/blueB2.png,Beta,Beta,TRUE,0.0264436,11,FALSE,2
11021,training_phase_1,2,5,56,materials/images/redA3.png,Alpha,Beta,FALSE,1.9207257,11,FALSE,2
11021,training_phase_1,2,5,57,materials/images/redA6.png,Alpha,Alpha,TRUE,3.2820815,11,FALSE,3
11021,training_phase_1,2,5,58,materials/images/redA5.png,Alpha,Alpha,TRUE,4.6719012,11,FALSE,4
11021,training_phase_1,2,5,59,materials/images/blueB3.png,Beta,Beta,TRUE,2.0364918,11,FALSE,5
11021,training_phase_1,2,5,60,materials/images/blueB4.png,Beta,Beta,TRUE,1.5944711,11,FALSE,6
11021,training_phase_1,2,6,61,materials/images/redA3.png,Alpha,Alpha,TRUE,4.7284621,11,FALSE,1
11021,training_phase_1,2,6,62,materials/images/blueB3.png,Beta,Beta,TRUE,0.9200489,11,FALSE,2
11021,training_phase_1,2,6,63,materials/images/redA5.png,Alpha,Alpha,TRUE,1.4204744,11,FALSE,3
11021,training_phase_1,2,6,64,materials/images/redA4.png,Alpha,Alpha,TRUE,0.6241621,11,FALSE,4
11021,training_phase_1,2,6,65,materials/images/redA2.png,Alpha,Beta,FALSE,1.4171837,11,FALSE,4
11021,training_phase_1,2,6,66,materials/images/blueB2.png,Beta,Beta,TRUE,8.3191271,11,FALSE,5
11021,training_phase_1,2,6,67,materials/images/redA6.png,Alpha,Alpha,TRUE,2.3816181,11,FALSE,6
11021,training_phase_1,2,6,68,materials/images/blueB1.png,Beta,Beta,TRUE,0.7411542,11,FALSE,7
11021,training_phase_1,2,6,69,materials/images/redA1.png,Alpha,Beta,FALSE,6.951394,11,FALSE,7
11021,training_phase_1,2,6,70,materials/images/blueB4.png,Beta,Alpha,FALSE,1.0043915,11,FALSE,7
11021,training_phase_1,2,6,71,materials/images/blueB5.png,Beta,Alpha,FALSE,1.3451835,11,FALSE,7
11021,training_phase_1,2,6,72,materials/images/blueB6.png,Beta,Alpha,FALSE,3.5247878,11,FALSE,7
11021,training_phase_1,2,7,73,materials/images/redA6.png,Alpha,Beta,FALSE,2.7402288,11,FALSE,0
11021,training_phase_1,2,7,74,materials/images/blueB6.png,Beta,Alpha,FALSE,1.1949401,11,FALSE,0
11021,training_phase_1,2,7,75,materials/images/redA5.png,Alpha,Alpha,TRUE,11.0320128,11,FALSE,1
11021,training_phase_1,2,7,76,materials/images/blueB4.png,Beta,Alpha,FALSE,5.1850974,11,FALSE,1
11021,training_phase_1,2,7,77,materials/images/redA3.png,Alpha,Beta,FALSE,8.0957688,11,FALSE,1
11021,training_phase_1,2,7,78,materials/images/redA2.png,Alpha,Alpha,TRUE,5.0743567,11,FALSE,2
11021,training_phase_1,2,7,79,materials/images/redA4.png,Alpha,Beta,FALSE,2.5411391,11,FALSE,2
11021,training_phase_1,2,7,80,materials/images/blueB2.png,Beta,Beta,TRUE,0.1453376,11,FALSE,3
11021,training_phase_1,2,7,81,materials/images/blueB3.png,Beta,Beta,TRUE,0.6674939,11,FALSE,4
11021,training_phase_1,2,7,82,materials/images/blueB5.png,Beta,Beta,TRUE,2.3593885,11,FALSE,5
11021,training_phase_1,2,7,83,materials/images/blueB1.png,Beta,Beta,TRUE,1.6522898,11,FALSE,6
11021,training_phase_1,2,7,84,materials/images/redA1.png,Alpha,Alpha,TRUE,1.5066921,11,FALSE,7
11021,training_phase_1,2,8,85,materials/images/blueB5.png,Beta,Beta,TRUE,1.6038624,11,FALSE,1
11021,training_phase_1,2,8,86,materials/images/blueB1.png,Beta,Beta,TRUE,0.830686,11,FALSE,2
11021,training_phase_1,2,8,87,materials/images/blueB3.png,Beta,Beta,TRUE,0.8245641,11,FALSE,3
11021,training_phase_1,2,8,88,materials/images/redA5.png,Alpha,Alpha,TRUE,2.5193287,11,FALSE,4
11021,training_phase_1,2,8,89,materials/images/blueB4.png,Beta,Beta,TRUE,1.9593436,11,FALSE,5
11021,training_phase_1,2,8,90,materials/images/redA6.png,Alpha,Alpha,TRUE,0.9175581,11,FALSE,6
11021,training_phase_1,2,8,91,materials/images/redA2.png,Alpha,Beta,FALSE,0.5518532,11,FALSE,6
11021,training_phase_1,2,8,92,materials/images/blueB2.png,Beta,Beta,TRUE,0.6408327,11,FALSE,7
11021,training_phase_1,2,8,93,materials/images/redA3.png,Alpha,Alpha,TRUE,0.751981,11,FALSE,8
11021,training_phase_1,2,8,94,materials/images/redA4.png,Alpha,Alpha,TRUE,0.6499393,11,FALSE,9
11021,training_phase_1,2,8,95,materials/images/blueB6.png,Beta,Beta,TRUE,2.711833,11,FALSE,10
11021,training_phase_1,2,8,96,materials/images/redA1.png,Alpha,Alpha,TRUE,0.9721133,11,TRUE,11
11021,test_phase,2,1,1,materials/images/redA2.png,Alpha,Alpha,gen,9.1081389,1,TRUE,1
11021,test_phase,2,1,2,materials/images/yGen4.png,test,Beta,gen,1.1316345,1,TRUE,2
11021,test_phase,2,1,3,materials/images/yGen2.png,test,Beta,gen,5.174662,1,TRUE,3
11021,test_phase,2,1,4,materials/images/yGen3.png,test,Beta,gen,29.8777751,1,TRUE,4
11021,test_phase,2,1,5,materials/images/redA3.png,Alpha,Alpha,gen,0.6004407,1,TRUE,5
11021,test_phase,2,1,6,materials/images/blueB2.png,Beta,Beta,gen,1.9819384,1,TRUE,6
11021,test_phase,2,1,7,materials/images/blueB3.png,Beta,Beta,gen,0.0239074,1,TRUE,7
11021,test_phase,2,1,8,materials/images/yGen1.png,test,Alpha,gen,0.4346043,1,TRUE,8
11021,test_phase,2,1,9,materials/images/blueB6.png,Beta,Beta,gen,3.0419382,1,TRUE,9
11021,test_phase,2,1,10,materials/images/redA5.png,Alpha,Alpha,gen,1.0458835,1,TRUE,10
11021,test_phase,2,1,11,materials/images/blueB4.png,Beta,Beta,gen,3.667703,1,TRUE,11
11021,test_phase,2,1,12,materials/images/redA6.png,Alpha,Alpha,gen,1.6314873,1,TRUE,12
11021,test_phase,2,1,13,materials/images/blueB5.png,Beta,Beta,gen,0.7819961,1,TRUE,13
11021,test_phase,2,1,14,materials/images/redA1.png,Alpha,Alpha,gen,7.7980303,1,TRUE,14
11021,test_phase,2,1,15,materials/images/redA4.png,Alpha,Alpha,gen,1.501656,1,TRUE,15
11021,test_phase,2,1,16,materials/images/blueB1.png,Beta,Beta,gen,0.5506525,1,TRUE,16
11021,test_phase,2,1,17,materials/images/yGen5.png,test,Beta,gen,0.5332749,1,TRUE,17
11021,training_phase_2,2,1,1,materials/images/blackG2.png,Gamma,Beta,FALSE,1.1571073,30,FALSE,0
11021,training_phase_2,2,1,2,materials/images/blueB2.png,Beta,Gamma,FALSE,1.6156939,30,FALSE,0
11021,training_phase_2,2,1,3,materials/images/blueB3.png,Beta,Gamma,FALSE,0.0809955,30,FALSE,0
11021,training_phase_2,2,1,4,materials/images/blackG4.png,Gamma,Alpha,FALSE,0.4306771,30,FALSE,0
11021,training_phase_2,2,1,5,materials/images/blueB5.png,Beta,Delta,FALSE,0.1238688,30,FALSE,0
11021,training_phase_2,2,1,6,materials/images/redA3.png,Alpha,Gamma,FALSE,0.7145175,30,FALSE,0
11021,training_phase_2,2,1,7,materials/images/redA6.png,Alpha,Alpha,TRUE,0.7828535,30,FALSE,1
11021,training_phase_2,2,1,8,materials/images/blackG5.png,Gamma,Alpha,FALSE,0.2395809,30,FALSE,1
11021,training_phase_2,2,1,9,materials/images/greenD6.png,Delta,Delta,TRUE,0.2317198,30,FALSE,2
11021,training_phase_2,2,1,10,materials/images/greenD1.png,Delta,Delta,TRUE,0.0448656,30,FALSE,3
