pnum,phase_id,condition,block_data,trial_num,stim,correct_category,response,hit,rt,criterian,met_criterian,num_correct_in_block
11013,training_phase_1,2,1,1,materials/images/blueB1.png,Beta,Alpha,False,1.8017139993607998,11,False,0
11013,training_phase_1,2,1,2,materials/images/redA2.png,Alpha,Beta,False,0.6578141003847122,11,False,0
11013,training_phase_1,2,1,3,materials/images/blueB5.png,Beta,Alpha,False,0.5202703000977635,11,False,0
11013,training_phase_1,2,1,4,materials/images/blueB4.png,Beta,Alpha,False,4.473804600536823,11,False,0
11013,training_phase_1,2,1,5,materials/images/blueB2.png,Beta,Beta,True,4.762068799696863,11,False,1
11013,training_phase_1,2,1,6,materials/images/redA3.png,Alpha,Alpha,True,0.4148217001929879,11,False,2
11013,training_phase_1,2,1,7,materials/images/redA5.png,Alpha,Beta,False,5.57246629986912,11,False,2
11013,training_phase_1,2,1,8,materials/images/redA1.png,Alpha,Alpha,True,2.8260506000369787,11,False,3
11013,training_phase_1,2,1,9,materials/images/redA6.png,Alpha,Alpha,True,4.212538399733603,11,False,4
11013,training_phase_1,2,1,10,materials/images/blueB6.png,Beta,Alpha,False,2.2926054997369647,11,False,4
11013,training_phase_1,2,1,11,materials/images/redA4.png,Alpha,Alpha,True,8.862340999767184,11,False,5
11013,training_phase_1,2,1,12,materials/images/blueB3.png,Beta,Beta,True,1.099465100094676,11,False,6
11013,training_phase_1,2,2,13,materials/images/redA6.png,Alpha,Alpha,True,5.085382100194693,11,False,1
11013,training_phase_1,2,2,14,materials/images/redA3.png,Alpha,Alpha,True,3.832255500368774,11,False,2
11013,training_phase_1,2,2,15,materials/images/blueB4.png,Beta,Alpha,False,0.3121210001409054,11,False,2
11013,training_phase_1,2,2,16,materials/images/blueB2.png,Beta,Beta,True,0.9463579999282956,11,False,3
11013,training_phase_1,2,2,17,materials/images/redA1.png,Alpha,Alpha,True,0.261812100186944,11,False,4
11013,training_phase_1,2,2,18,materials/images/blueB3.png,Beta,Beta,True,1.7522123996168375,11,False,5
11013,training_phase_1,2,2,19,materials/images/redA2.png,Alpha,Alpha,True,0.829063500277698,11,False,6
11013,training_phase_1,2,2,20,materials/images/blueB6.png,Beta,Alpha,False,3.3949253000319004,11,False,6
11013,training_phase_1,2,2,21,materials/images/redA4.png,Alpha,Alpha,True,1.7904871990904212,11,False,7
11013,training_phase_1,2,2,22,materials/images/blueB1.png,Beta,Beta,True,0.32690099999308586,11,False,8
11013,training_phase_1,2,2,23,materials/images/blueB5.png,Beta,Beta,True,2.6239221999421716,11,False,9
11013,training_phase_1,2,2,24,materials/images/redA5.png,Alpha,Alpha,True,1.4011781001463532,11,False,10
11013,training_phase_1,2,3,25,materials/images/redA3.png,Alpha,Alpha,True,0.7055480005219579,11,False,1
11013,training_phase_1,2,3,26,materials/images/blueB6.png,Beta,Alpha,False,2.917349800467491,11,False,1
11013,training_phase_1,2,3,27,materials/images/blueB4.png,Beta,Beta,True,0.31314719934016466,11,False,2
11013,training_phase_1,2,3,28,materials/images/redA4.png,Alpha,Alpha,True,2.166873600333929,11,False,3
11013,training_phase_1,2,3,29,materials/images/blueB1.png,Beta,Alpha,False,0.3645671997219324,11,False,3
11013,training_phase_1,2,3,30,materials/images/blueB2.png,Beta,Beta,True,1.6289296997711062,11,False,4
11013,training_phase_1,2,3,31,materials/images/redA6.png,Alpha,Alpha,True,4.218296200037003,11,False,5
11013,training_phase_1,2,3,32,materials/images/redA5.png,Alpha,Alpha,True,1.9861222002655268,11,False,6
11013,training_phase_1,2,3,33,materials/images/blueB5.png,Beta,Beta,True,4.5949467997998,11,False,7
11013,training_phase_1,2,3,34,materials/images/redA2.png,Alpha,Alpha,True,0.8667939994484186,11,False,8
11013,training_phase_1,2,3,35,materials/images/blueB3.png,Beta,Beta,True,1.1357108000665903,11,False,9
11013,training_phase_1,2,3,36,materials/images/redA1.png,Alpha,Alpha,True,2.4645400000736117,11,False,10
11013,training_phase_1,2,4,37,materials/images/redA1.png,Alpha,Alpha,True,0.022826899774372578,11,False,1
11013,training_phase_1,2,4,38,materials/images/redA3.png,Alpha,Alpha,True,0.7059076000005007,11,False,2
11013,training_phase_1,2,4,39,materials/images/blueB2.png,Beta,Beta,True,0.49811309948563576,11,False,3
11013,training_phase_1,2,4,40,materials/images/blueB5.png,Beta,Beta,True,0.12611320056021214,11,False,4
11013,training_phase_1,2,4,41,materials/images/blueB1.png,Beta,Beta,True,0.7090307995676994,11,False,5
11013,training_phase_1,2,4,42,materials/images/blueB3.png,Beta,Beta,True,0.8131187995895743,11,False,6
11013,training_phase_1,2,4,43,materials/images/redA2.png,Alpha,Alpha,True,0.034789999946951866,11,False,7
11013,training_phase_1,2,4,44,materials/images/redA4.png,Alpha,Alpha,True,0.8462354997172952,11,False,8
11013,training_phase_1,2,4,45,materials/images/redA5.png,Alpha,Alpha,True,0.058918300084769726,11,False,9
11013,training_phase_1,2,4,46,materials/images/redA6.png,Alpha,Alpha,True,0.7585413996130228,11,False,10
11013,training_phase_1,2,4,47,materials/images/blueB4.png,Beta,Beta,True,3.710933300666511,11,True,11
11013,training_phase_1,2,4,48,materials/images/blueB6.png,Beta,Beta,True,0.19872120022773743,11,True,12
pnum,phase_id,condition,block_data,trial_num,stim,correct_category,response,hit,rt,criterian,met_criterian,num_correct_in_block
11013,test_phase,2,1,1,materials/images/yGen4.png,test,Beta,gen,1.16216959990561,1,True,1
11013,test_phase,2,1,2,materials/images/yGen5.png,test,Beta,gen,4.253768599592149,1,True,2
11013,test_phase,2,1,3,materials/images/blueB1.png,Beta,Beta,gen,2.4146333001554012,1,True,3
11013,test_phase,2,1,4,materials/images/redA2.png,Alpha,Alpha,gen,0.5123438993468881,1,True,4
11013,test_phase,2,1,5,materials/images/blueB4.png,Beta,Beta,gen,6.459469899535179,1,True,5
11013,test_phase,2,1,6,materials/images/redA1.png,Alpha,Alpha,gen,1.7129643997177482,1,True,6
11013,test_phase,2,1,7,materials/images/redA5.png,Alpha,Alpha,gen,2.301731400191784,1,True,7
11013,test_phase,2,1,8,materials/images/redA3.png,Alpha,Alpha,gen,0.26976989954710007,1,True,8
11013,test_phase,2,1,9,materials/images/blueB2.png,Beta,Beta,gen,0.6769467005506158,1,True,9
11013,test_phase,2,1,10,materials/images/blueB5.png,Beta,Beta,gen,1.3499787002801895,1,True,10
11013,test_phase,2,1,11,materials/images/redA4.png,Alpha,Alpha,gen,1.2225216999650002,1,True,11
11013,test_phase,2,1,12,materials/images/redA6.png,Alpha,Alpha,gen,2.115556100383401,1,True,12
11013,test_phase,2,1,13,materials/images/yGen3.png,test,Beta,gen,2.811443199403584,1,True,13
11013,test_phase,2,1,14,materials/images/blueB6.png,Beta,Beta,gen,0.5022809002548456,1,True,14
11013,test_phase,2,1,15,materials/images/blueB3.png,Beta,Beta,gen,1.0439487006515265,1,True,15
11013,test_phase,2,1,16,materials/images/yGen1.png,test,Alpha,gen,0.5230116005986929,1,True,16
11013,test_phase,2,1,17,materials/images/yGen2.png,test,Alpha,gen,1.3363038999959826,1,True,17
pnum,phase_id,condition,block_data,trial_num,stim,correct_category,response,hit,rt,criterian,met_criterian,num_correct_in_block
11013,training_phase_2,2,1,1,materials/images/redA5.png,Alpha,Beta,False,12.32327530067414,30,False,0
11013,training_phase_2,2,1,2,materials/images/greenD5.png,Delta,Beta,False,0.0887406999245286,30,False,0
11013,training_phase_2,2,1,3,materials/images/blueB6.png,Beta,Gamma,False,0.27660390082746744,30,False,0
11013,training_phase_2,2,1,4,materials/images/redA1.png,Alpha,Alpha,True,0.9464009003713727,30,False,1
11013,training_phase_2,2,1,5,materials/images/greenD4.png,Delta,Delta,True,2.008661199361086,30,False,2
11013,training_phase_2,2,1,6,materials/images/blackG3.png,Gamma,Gamma,True,0.3657750003039837,30,False,3
11013,training_phase_2,2,1,7,materials/images/blueB4.png,Beta,Alpha,False,2.042258500121534,30,False,3
11013,training_phase_2,2,1,8,materials/images/blackG2.png,Gamma,Gamma,True,0.9869502997025847,30,False,4
11013,training_phase_2,2,1,9,materials/images/redA6.png,Alpha,Beta,False,0.3880554996430874,30,False,4
11013,training_phase_2,2,1,10,materials/images/redA4.png,Alpha,Alpha,True,0.30122980009764433,30,False,5
11013,training_phase_2,2,1,11,materials/images/blackG5.png,Gamma,Alpha,False,1.0217773001641035,30,False,5
11013,training_phase_2,2,1,12,materials/images/greenD2.png,Delta,Gamma,False,2.783584300428629,30,False,5
11013,training_phase_2,2,1,13,materials/images/greenD6.png,Delta,Delta,True,3.296020300127566,30,False,6
11013,training_phase_2,2,1,14,materials/images/redA2.png,Alpha,Alpha,True,0.6419275002554059,30,False,7
11013,training_phase_2,2,1,15,materials/images/blueB5.png,Beta,Beta,True,2.4650723999366164,30,False,8
11013,training_phase_2,2,1,16,materials/images/blueB2.png,Beta,Delta,False,5.096185499802232,30,False,8
11013,training_phase_2,2,1,17,materials/images/blackG6.png,Gamma,Delta,False,2.360001699998975,30,False,8
11013,training_phase_2,2,1,18,materials/images/blackG4.png,Gamma,Gamma,True,5.6472699996083975,30,False,9
11013,training_phase_2,2,1,19,materials/images/greenD1.png,Delta,Delta,True,1.1379734994843602,30,False,10
11013,training_phase_2,2,1,20,materials/images/greenD3.png,Delta,Delta,True,2.175840800628066,30,False,11
11013,training_phase_2,2,1,21,materials/images/blackG1.png,Gamma,Beta,False,1.0606705006211996,30,False,11
11013,training_phase_2,2,1,22,materials/images/blueB3.png,Beta,Gamma,False,3.8421900998800993,30,False,11
11013,training_phase_2,2,1,23,materials/images/blueB1.png,Beta,Delta,False,1.6712218998000026,30,False,11
11013,training_phase_2,2,1,24,materials/images/redA3.png,Alpha,Alpha,True,2.7180938003584743,30,False,12
11013,training_phase_2,2,2,25,materials/images/greenD6.png,Delta,Delta,True,5.343646500259638,30,False,1
11013,training_phase_2,2,2,26,materials/images/redA6.png,Alpha,Alpha,True,18.70392830017954,30,False,2
11013,training_phase_2,2,2,27,materials/images/redA4.png,Alpha,Alpha,True,4.155349199660122,30,False,3
11013,training_phase_2,2,2,28,materials/images/blackG5.png,Gamma,Gamma,True,1.9944345001131296,30,False,4
11013,training_phase_2,2,2,29,materials/images/greenD1.png,Delta,Beta,False,8.512491200119257,30,False,4
11013,training_phase_2,2,2,30,materials/images/blueB5.png,Beta,Beta,True,2.7572965007275343,30,False,5
11013,training_phase_2,2,2,31,materials/images/redA1.png,Alpha,Alpha,True,4.4573835004121065,30,False,6
11013,training_phase_2,2,2,32,materials/images/blueB6.png,Beta,Gamma,False,5.35649779997766,30,False,6
11013,training_phase_2,2,2,33,materials/images/greenD4.png,Delta,Beta,False,6.47258559986949,30,False,6
11013,training_phase_2,2,2,34,materials/images/blackG2.png,Gamma,Alpha,False,1.4640282997861505,30,False,6
11013,training_phase_2,2,2,35,materials/images/blackG6.png,Gamma,Beta,False,22.168606599792838,30,False,6
11013,training_phase_2,2,2,36,materials/images/blueB3.png,Beta,Beta,True,22.333323899656534,30,False,7
11013,training_phase_2,2,2,37,materials/images/blackG4.png,Gamma,Gamma,True,4.224376300349832,30,False,8
11013,training_phase_2,2,2,38,materials/images/blueB4.png,Beta,Beta,True,5.7066404996439815,30,False,9
11013,training_phase_2,2,2,39,materials/images/redA2.png,Alpha,Delta,False,3.577288900502026,30,False,9
11013,training_phase_2,2,2,40,materials/images/blackG1.png,Gamma,Alpha,False,2.147741699591279,30,False,9
11013,training_phase_2,2,2,41,materials/images/greenD3.png,Delta,Gamma,False,6.523652799427509,30,False,9
11013,training_phase_2,2,2,42,materials/images/greenD2.png,Delta,Gamma,False,21.55904519930482,30,False,9
11013,training_phase_2,2,2,43,materials/images/greenD5.png,Delta,Gamma,False,3.5777732003480196,30,False,9
11013,training_phase_2,2,2,44,materials/images/redA5.png,Alpha,Beta,False,0.10713359992951155,30,False,9
11013,training_phase_2,2,2,45,materials/images/redA3.png,Alpha,Alpha,True,9.468913799151778,30,False,10
11013,training_phase_2,2,2,46,materials/images/blackG3.png,Gamma,Alpha,False,2.0094817001372576,30,False,10
11013,training_phase_2,2,2,47,materials/images/blueB2.png,Beta,Alpha,False,2.0404579006135464,30,False,10
11013,training_phase_2,2,2,48,materials/images/blueB1.png,Beta,Beta,True,0.4809142993763089,30,False,11
