pnum,phase_id,condition,block_data,trial_num,stim,correct_category,response,hit,rt,criterian,met_criterian,num_correct_in_block
11020,training_phase_1,1,1,1,materials/images/redA1.png,Alpha,Beta,False,3.381329400013783,11,False,0
11020,training_phase_1,1,1,2,materials/images/redA5.png,Alpha,Alpha,True,1.2732796000054805,11,False,1
11020,training_phase_1,1,1,3,materials/images/redA3.png,Alpha,Alpha,True,0.7207680999999866,11,False,2
11020,training_phase_1,1,1,4,materials/images/redA2.png,Alpha,Alpha,True,1.0444892000086838,11,False,3
11020,training_phase_1,1,1,5,materials/images/redA4.png,Alpha,Alpha,True,1.4113926999998512,11,False,4
11020,training_phase_1,1,1,6,materials/images/blueB3.png,Beta,Beta,True,4.86688659999345,11,False,5
11020,training_phase_1,1,1,7,materials/images/blueB4.png,Beta,Alpha,False,0.9402349000010872,11,False,5
11020,training_phase_1,1,1,8,materials/images/blueB1.png,Beta,Alpha,False,2.718169300002046,11,False,5
11020,training_phase_1,1,1,9,materials/images/blueB2.png,Beta,Beta,True,0.02188200000091456,11,False,6
11020,training_phase_1,1,1,10,materials/images/redA6.png,Alpha,Alpha,True,0.3800553999899421,11,False,7
11020,training_phase_1,1,1,11,materials/images/blueB6.png,Beta,Beta,True,0.5471190999960527,11,False,8
11020,training_phase_1,1,1,12,materials/images/blueB5.png,Beta,Beta,True,0.445596999998088,11,False,9
11020,training_phase_1,1,2,13,materials/images/blueB4.png,Beta,Alpha,False,0.4561340999935055,11,False,0
11020,training_phase_1,1,2,14,materials/images/blueB2.png,Beta,Beta,True,0.6837115999951493,11,False,1
11020,training_phase_1,1,2,15,materials/images/blueB6.png,Beta,Beta,True,0.3737764000106836,11,False,2
11020,training_phase_1,1,2,16,materials/images/redA5.png,Alpha,Alpha,True,1.059292899997672,11,False,3
11020,training_phase_1,1,2,17,materials/images/redA2.png,Alpha,Beta,False,0.9117764999973588,11,False,3
11020,training_phase_1,1,2,18,materials/images/redA1.png,Alpha,Alpha,True,0.7486405999952694,11,False,4
11020,training_phase_1,1,2,19,materials/images/blueB1.png,Beta,Beta,True,1.1382626999984495,11,False,5
11020,training_phase_1,1,2,20,materials/images/redA4.png,Alpha,Beta,False,1.0200808999943547,11,False,5
11020,training_phase_1,1,2,21,materials/images/blueB5.png,Beta,Beta,True,1.4876174999953946,11,False,6
11020,training_phase_1,1,2,22,materials/images/blueB3.png,Beta,Alpha,False,1.4861644999909913,11,False,6
11020,training_phase_1,1,2,23,materials/images/redA6.png,Alpha,Beta,False,1.0521396999974968,11,False,6
11020,training_phase_1,1,2,24,materials/images/redA3.png,Alpha,Beta,False,0.7659761999966577,11,False,6
11020,training_phase_1,1,3,25,materials/images/blueB1.png,Beta,Alpha,False,0.9513525000074878,11,False,0
11020,training_phase_1,1,3,26,materials/images/blueB3.png,Beta,Alpha,False,0.6155923000042094,11,False,0
11020,training_phase_1,1,3,27,materials/images/redA5.png,Alpha,Alpha,True,0.6056868999876315,11,False,1
11020,training_phase_1,1,3,28,materials/images/redA6.png,Alpha,Alpha,True,0.10172189999138936,11,False,2
11020,training_phase_1,1,3,29,materials/images/redA3.png,Alpha,Beta,False,0.02150160000019241,11,False,2
11020,training_phase_1,1,3,30,materials/images/redA1.png,Alpha,Beta,False,0.49237389999325387,11,False,2
11020,training_phase_1,1,3,31,materials/images/blueB4.png,Beta,Alpha,False,0.7872835000016494,11,False,2
11020,training_phase_1,1,3,32,materials/images/blueB2.png,Beta,Beta,True,0.08172439999179915,11,False,3
11020,training_phase_1,1,3,33,materials/images/redA2.png,Alpha,Beta,False,0.6750487999961479,11,False,3
11020,training_phase_1,1,3,34,materials/images/blueB5.png,Beta,Alpha,False,0.04686609999043867,11,False,3
11020,training_phase_1,1,3,35,materials/images/blueB6.png,Beta,Alpha,False,20.635358300001826,11,False,3
11020,training_phase_1,1,3,36,materials/images/redA4.png,Alpha,Beta,False,1.7707174000097439,11,False,3
11020,training_phase_1,1,4,37,materials/images/blueB6.png,Beta,Beta,True,1.6553453999949852,11,False,1
11020,training_phase_1,1,4,38,materials/images/redA6.png,Alpha,Alpha,True,0.045320799996261485,11,False,2
11020,training_phase_1,1,4,39,materials/images/blueB2.png,Beta,Beta,True,9.238966699995217,11,False,3
11020,training_phase_1,1,4,40,materials/images/blueB5.png,Beta,Alpha,False,1.0395992999983719,11,False,3
11020,training_phase_1,1,4,41,materials/images/redA3.png,Alpha,Beta,False,0.020951300000888295,11,False,3
11020,training_phase_1,1,4,42,materials/images/blueB4.png,Beta,Beta,True,0.020555299997795373,11,False,4
11020,training_phase_1,1,4,43,materials/images/redA1.png,Alpha,Alpha,True,0.34043989999918267,11,False,5
11020,training_phase_1,1,4,44,materials/images/redA4.png,Alpha,Beta,False,0.9252649999980349,11,False,5
11020,training_phase_1,1,4,45,materials/images/redA5.png,Alpha,Alpha,True,3.8538709999993443,11,False,6
11020,training_phase_1,1,4,46,materials/images/redA2.png,Alpha,Beta,False,0.22610359999816865,11,False,6
11020,training_phase_1,1,4,47,materials/images/blueB1.png,Beta,Beta,True,0.31072120000317227,11,False,7
11020,training_phase_1,1,4,48,materials/images/blueB3.png,Beta,Beta,True,6.361201499996241,11,False,8
11020,training_phase_1,1,5,49,materials/images/redA6.png,Alpha,Alpha,True,0.38259030001063365,11,False,1
11020,training_phase_1,1,5,50,materials/images/redA5.png,Alpha,Alpha,True,0.4737139000062598,11,False,2
11020,training_phase_1,1,5,51,materials/images/redA1.png,Alpha,Beta,False,1.3459865000040736,11,False,2
11020,training_phase_1,1,5,52,materials/images/blueB2.png,Beta,Beta,True,0.5900525000033667,11,False,3
11020,training_phase_1,1,5,53,materials/images/blueB6.png,Beta,Alpha,False,0.14000080000550952,11,False,3
11020,training_phase_1,1,5,54,materials/images/blueB5.png,Beta,Alpha,False,0.6237575000122888,11,False,3
11020,training_phase_1,1,5,55,materials/images/redA3.png,Alpha,Alpha,True,0.7592046000063419,11,False,4
11020,training_phase_1,1,5,56,materials/images/blueB1.png,Beta,Beta,True,0.34745359999942593,11,False,5
11020,training_phase_1,1,5,57,materials/images/redA2.png,Alpha,Alpha,True,0.23090809999848716,11,False,6
11020,training_phase_1,1,5,58,materials/images/blueB3.png,Beta,Alpha,False,0.03669910000462551,11,False,6
11020,training_phase_1,1,5,59,materials/images/redA4.png,Alpha,Alpha,True,1.2257704000076046,11,False,7
11020,training_phase_1,1,5,60,materials/images/blueB4.png,Beta,Alpha,False,0.5301907999964897,11,False,7
11020,training_phase_1,1,6,61,materials/images/blueB2.png,Beta,Beta,True,3.6361952000006568,11,False,1
11020,training_phase_1,1,6,62,materials/images/redA2.png,Alpha,Beta,False,18.81901000000653,11,False,1
11020,training_phase_1,1,6,63,materials/images/blueB6.png,Beta,Alpha,False,1.345845099989674,11,False,1
11020,training_phase_1,1,6,64,materials/images/blueB1.png,Beta,Alpha,False,0.7926567000104114,11,False,1
11020,training_phase_1,1,6,65,materials/images/redA3.png,Alpha,Alpha,True,0.10244180000154302,11,False,2
11020,training_phase_1,1,6,66,materials/images/redA6.png,Alpha,Alpha,True,14.752215400003479,11,False,3
11020,training_phase_1,1,6,67,materials/images/blueB5.png,Beta,Alpha,False,5.781612300008419,11,False,3
11020,training_phase_1,1,6,68,materials/images/redA5.png,Alpha,Beta,False,0.3557721999968635,11,False,3
11020,training_phase_1,1,6,69,materials/images/blueB3.png,Beta,Beta,True,0.05626529999426566,11,False,4
11020,training_phase_1,1,6,70,materials/images/redA1.png,Alpha,Alpha,True,1.0166043000062928,11,False,5
11020,training_phase_1,1,6,71,materials/images/redA4.png,Alpha,Alpha,True,0.021249199999147095,11,False,6
11020,training_phase_1,1,6,72,materials/images/blueB4.png,Beta,Alpha,False,0.5695577000005869,11,False,6
11020,training_phase_1,1,7,73,materials/images/redA4.png,Alpha,Alpha,True,0.6126373000006424,11,False,1
11020,training_phase_1,1,7,74,materials/images/blueB4.png,Beta,Alpha,False,0.5516625000018394,11,False,1
11020,training_phase_1,1,7,75,materials/images/redA2.png,Alpha,Beta,False,0.9023152000008849,11,False,1
11020,training_phase_1,1,7,76,materials/images/blueB1.png,Beta,Beta,True,1.5448604999983218,11,False,2
11020,training_phase_1,1,7,77,materials/images/blueB3.png,Beta,Alpha,False,0.15820140000141691,11,False,2
11020,training_phase_1,1,7,78,materials/images/redA1.png,Alpha,Alpha,True,0.8380386000062572,11,False,3
11020,training_phase_1,1,7,79,materials/images/redA6.png,Alpha,Alpha,True,0.5211654000013368,11,False,4
11020,training_phase_1,1,7,80,materials/images/blueB5.png,Beta,Alpha,False,0.5526155999978073,11,False,4
11020,training_phase_1,1,7,81,materials/images/redA5.png,Alpha,Alpha,True,0.45020379999186844,11,False,5
11020,training_phase_1,1,7,82,materials/images/redA3.png,Alpha,Beta,False,0.41327499999897555,11,False,5
11020,training_phase_1,1,7,83,materials/images/blueB2.png,Beta,Beta,True,0.5853155000077095,11,False,6
11020,training_phase_1,1,7,84,materials/images/blueB6.png,Beta,Alpha,False,1.1990373000007821,11,False,6
11020,training_phase_1,1,8,85,materials/images/blueB5.png,Beta,Alpha,False,1.6460674999980256,11,False,0
11020,training_phase_1,1,8,86,materials/images/redA2.png,Alpha,Beta,False,1.3241024000017205,11,False,0
11020,training_phase_1,1,8,87,materials/images/blueB3.png,Beta,Alpha,False,0.016769900001236238,11,False,0
11020,training_phase_1,1,8,88,materials/images/blueB6.png,Beta,Alpha,False,0.03542300000844989,11,False,0
11020,training_phase_1,1,8,89,materials/images/redA1.png,Alpha,Alpha,True,0.14957049999793526,11,False,1
11020,training_phase_1,1,8,90,materials/images/redA3.png,Alpha,Beta,False,0.7614517000038177,11,False,1
11020,training_phase_1,1,8,91,materials/images/blueB1.png,Beta,Beta,True,1.393256700001075,11,False,2
11020,training_phase_1,1,8,92,materials/images/blueB4.png,Beta,Alpha,False,0.061010899997199886,11,False,2
11020,training_phase_1,1,8,93,materials/images/redA4.png,Alpha,Alpha,True,0.10420060000615194,11,False,3
11020,training_phase_1,1,8,94,materials/images/blueB2.png,Beta,Beta,True,1.1786222999944584,11,False,4
11020,training_phase_1,1,8,95,materials/images/redA5.png,Alpha,Beta,False,0.6858273999969242,11,False,4
11020,training_phase_1,1,8,96,materials/images/redA6.png,Alpha,Alpha,True,0.3177282000106061,11,False,5
pnum,phase_id,condition,block_data,trial_num,stim,correct_category,response,hit,rt,criterian,met_criterian,num_correct_in_block
11020,test_phase,1,1,1,materials/images/blueB4.png,Beta,Alpha,gen,1.1828604999900563,1,True,1
11020,test_phase,1,1,2,materials/images/redA6.png,Alpha,Beta,gen,1.215639399990323,1,True,2
11020,test_phase,1,1,3,materials/images/yGen1.png,test,Alpha,gen,0.9462165000004461,1,True,3
11020,test_phase,1,1,4,materials/images/redA1.png,Alpha,Beta,gen,0.7415000999899348,1,True,4
11020,test_phase,1,1,5,materials/images/redA5.png,Alpha,Alpha,gen,0.16974630000186153,1,True,5
11020,test_phase,1,1,6,materials/images/redA2.png,Alpha,Beta,gen,0.4922798000043258,1,True,6
11020,test_phase,1,1,7,materials/images/blueB6.png,Beta,Alpha,gen,0.6190396000019973,1,True,7
11020,test_phase,1,1,8,materials/images/yGen3.png,test,Alpha,gen,3.5744013999938034,1,True,8
11020,test_phase,1,1,9,materials/images/blueB5.png,Beta,Alpha,gen,1.189623099999153,1,True,9
11020,test_phase,1,1,10,materials/images/redA3.png,Alpha,Alpha,gen,0.5833526000060374,1,True,10
11020,test_phase,1,1,11,materials/images/blueB1.png,Beta,Beta,gen,0.697298300001421,1,True,11
11020,test_phase,1,1,12,materials/images/yGen5.png,test,Alpha,gen,0.5327878999960376,1,True,12
11020,test_phase,1,1,13,materials/images/blueB3.png,Beta,Alpha,gen,0.754698400007328,1,True,13
11020,test_phase,1,1,14,materials/images/redA4.png,Alpha,Alpha,gen,0.536187699995935,1,True,14
11020,test_phase,1,1,15,materials/images/yGen4.png,test,Alpha,gen,0.26813229999970645,1,True,15
11020,test_phase,1,1,16,materials/images/blueB2.png,Beta,Beta,gen,0.2590212000068277,1,True,16
11020,test_phase,1,1,17,materials/images/yGen2.png,test,Alpha,gen,0.5179754000128014,1,True,17
pnum,phase_id,condition,block_data,trial_num,stim,correct_category,response,hit,rt,criterian,met_criterian,num_correct_in_block
11020,training_phase_2,1,1,1,materials/images/blackG6.png,Gamma,Alpha,False,0.5655385999998543,30,False,0
11020,training_phase_2,1,1,2,materials/images/redA2.png,Alpha,Beta,False,0.3601278000132879,30,False,0
11020,training_phase_2,1,1,3,materials/images/blueB6.png,Beta,Alpha,False,0.016710600000806153,30,False,0
11020,training_phase_2,1,1,4,materials/images/greenD2.png,Delta,Beta,False,0.33365820000472013,30,False,0
11020,training_phase_2,1,1,5,materials/images/redA5.png,Alpha,Alpha,True,4.705899900000077,30,False,1
11020,training_phase_2,1,1,6,materials/images/greenD5.png,Delta,Alpha,False,0.03265169999212958,30,False,1
11020,training_phase_2,1,1,7,materials/images/greenD6.png,Delta,Delta,True,0.4676484999945387,30,False,2
11020,training_phase_2,1,1,8,materials/images/blueB1.png,Beta,Beta,True,5.524309000000358,30,False,3
11020,training_phase_2,1,1,9,materials/images/blueB5.png,Beta,Delta,False,1.0874809000088135,30,False,3
11020,training_phase_2,1,1,10,materials/images/blackG1.png,Gamma,Delta,False,0.341770799990627,30,False,3
11020,training_phase_2,1,1,11,materials/images/redA3.png,Alpha,Beta,False,0.5243303000024753,30,False,3
11020,training_phase_2,1,1,12,materials/images/blackG2.png,Gamma,Alpha,False,5.161242499991204,30,False,3
11020,training_phase_2,1,1,13,materials/images/redA1.png,Alpha,Delta,False,7.023426400002791,30,False,3
11020,training_phase_2,1,1,14,materials/images/blackG5.png,Gamma,Gamma,True,1.9329576000018278,30,False,4
11020,training_phase_2,1,1,15,materials/images/blackG4.png,Gamma,Gamma,True,0.021287399998982437,30,False,5
11020,training_phase_2,1,1,16,materials/images/redA6.png,Alpha,Beta,False,0.06939150000107475,30,False,5
11020,training_phase_2,1,1,17,materials/images/greenD3.png,Delta,Delta,True,0.9402543000032892,30,False,6
11020,training_phase_2,1,1,18,materials/images/blueB3.png,Beta,Alpha,False,0.21072760000242852,30,False,6
11020,training_phase_2,1,1,19,materials/images/blackG3.png,Gamma,Beta,False,0.06973759998800233,30,False,6
11020,training_phase_2,1,1,20,materials/images/greenD1.png,Delta,Alpha,False,1.0127948000008473,30,False,6
11020,training_phase_2,1,1,21,materials/images/blueB4.png,Beta,Beta,True,0.04697009999654256,30,False,7
11020,training_phase_2,1,1,22,materials/images/redA4.png,Alpha,Gamma,False,1.1474365000030957,30,False,7
11020,training_phase_2,1,1,23,materials/images/blueB2.png,Beta,Delta,False,2.450228799993056,30,False,7
11020,training_phase_2,1,1,24,materials/images/greenD4.png,Delta,Delta,True,0.9794567999924766,30,False,8
11020,training_phase_2,1,2,25,materials/images/blackG3.png,Gamma,Beta,False,0.43518549999862444,30,False,0
11020,training_phase_2,1,2,26,materials/images/blackG5.png,Gamma,Gamma,True,0.31663499999558553,30,False,1
11020,training_phase_2,1,2,27,materials/images/redA2.png,Alpha,Delta,False,1.2504381999897305,30,False,1
11020,training_phase_2,1,2,28,materials/images/blueB4.png,Beta,Alpha,False,0.4213995000027353,30,False,1
11020,training_phase_2,1,2,29,materials/images/blackG4.png,Gamma,Gamma,True,0.3856858000071952,30,False,2
11020,training_phase_2,1,2,30,materials/images/blueB6.png,Beta,Beta,True,0.8019578000094043,30,False,3
11020,training_phase_2,1,2,31,materials/images/redA1.png,Alpha,Alpha,True,1.4179308000020683,30,False,4
11020,training_phase_2,1,2,32,materials/images/greenD6.png,Delta,Delta,True,0.8904094000026817,30,False,5
11020,training_phase_2,1,2,33,materials/images/redA5.png,Alpha,Beta,False,0.2511865999986185,30,False,5
11020,training_phase_2,1,2,34,materials/images/blueB1.png,Beta,Alpha,False,3.000530500008608,30,False,5
11020,training_phase_2,1,2,35,materials/images/greenD5.png,Delta,Gamma,False,0.3523898999992525,30,False,5
11020,training_phase_2,1,2,36,materials/images/blackG2.png,Gamma,Beta,False,0.026701100010541268,30,False,5
11020,training_phase_2,1,2,37,materials/images/blueB3.png,Beta,Beta,True,0.07313989999238402,30,False,6
11020,training_phase_2,1,2,38,materials/images/greenD3.png,Delta,Gamma,False,0.5697724999918137,30,False,6
11020,training_phase_2,1,2,39,materials/images/redA6.png,Alpha,Alpha,True,0.43839589999697637,30,False,7
11020,training_phase_2,1,2,40,materials/images/greenD1.png,Delta,Beta,False,0.04094890000123996,30,False,7
11020,training_phase_2,1,2,41,materials/images/greenD4.png,Delta,Delta,True,0.6783851999934996,30,False,8
11020,training_phase_2,1,2,42,materials/images/blackG6.png,Gamma,Gamma,True,0.39792920000036247,30,False,9
11020,training_phase_2,1,2,43,materials/images/blackG1.png,Gamma,Alpha,False,0.8940796999959275,30,False,9
11020,training_phase_2,1,2,44,materials/images/blueB2.png,Beta,Beta,True,0.3155763999966439,30,False,10
11020,training_phase_2,1,2,45,materials/images/redA3.png,Alpha,Beta,False,0.2342181999993045,30,False,10
11020,training_phase_2,1,2,46,materials/images/blueB5.png,Beta,Alpha,False,0.20511690000421368,30,False,10
11020,training_phase_2,1,2,47,materials/images/greenD2.png,Delta,Beta,False,0.02098320001095999,30,False,10
11020,training_phase_2,1,2,48,materials/images/redA4.png,Alpha,Beta,False,1.2232857000053627,30,False,10
