pnum,phase_id,condition,block_data,trial_num,stim,correct_category,response,hit,rt,criterian,met_criterian,num_correct_in_block
11039,training_phase_1,2,1,1,materials/images/redA6.png,Alpha,Beta,False,1.8166468999988865,11,False,0
11039,training_phase_1,2,1,2,materials/images/blueB5.png,Beta,Alpha,False,0.3051262999942992,11,False,0
11039,training_phase_1,2,1,3,materials/images/redA2.png,Alpha,Beta,False,1.6792890000069747,11,False,0
11039,training_phase_1,2,1,4,materials/images/redA3.png,Alpha,Beta,False,0.17028859999845736,11,False,0
11039,training_phase_1,2,1,5,materials/images/blueB3.png,Beta,Alpha,False,0.2616258000052767,11,False,0
11039,training_phase_1,2,1,6,materials/images/blueB4.png,Beta,Beta,True,1.0551441999996314,11,False,1
11039,training_phase_1,2,1,7,materials/images/blueB6.png,Beta,Beta,True,0.5201404999970691,11,False,2
11039,training_phase_1,2,1,8,materials/images/redA4.png,Alpha,Alpha,True,0.42038009999669157,11,False,3
11039,training_phase_1,2,1,9,materials/images/redA5.png,Alpha,Alpha,True,0.3409576999983983,11,False,4
11039,training_phase_1,2,1,10,materials/images/redA1.png,Alpha,Alpha,True,0.17120599999907427,11,False,5
11039,training_phase_1,2,1,11,materials/images/blueB1.png,Beta,Alpha,False,0.36146390000067186,11,False,5
11039,training_phase_1,2,1,12,materials/images/blueB2.png,Beta,Beta,True,0.46507750000455417,11,False,6
11039,training_phase_1,2,2,13,materials/images/blueB4.png,Beta,Beta,True,0.5473191000055522,11,False,1
11039,training_phase_1,2,2,14,materials/images/redA4.png,Alpha,Beta,False,0.24543280000216328,11,False,1
11039,training_phase_1,2,2,15,materials/images/redA6.png,Alpha,Alpha,True,0.2659808000025805,11,False,2
11039,training_phase_1,2,2,16,materials/images/blueB6.png,Beta,Beta,True,0.35606030000781175,11,False,3
11039,training_phase_1,2,2,17,materials/images/redA1.png,Alpha,Alpha,True,0.2554264000063995,11,False,4
11039,training_phase_1,2,2,18,materials/images/redA5.png,Alpha,Alpha,True,0.01790070001152344,11,False,5
11039,training_phase_1,2,2,19,materials/images/blueB3.png,Beta,Alpha,False,0.27826580000692047,11,False,5
11039,training_phase_1,2,2,20,materials/images/blueB5.png,Beta,Beta,True,0.2877110000117682,11,False,6
11039,training_phase_1,2,2,21,materials/images/redA2.png,Alpha,Alpha,True,0.13510840000526514,11,False,7
11039,training_phase_1,2,2,22,materials/images/blueB1.png,Beta,Alpha,False,0.12575639999704435,11,False,7
11039,training_phase_1,2,2,23,materials/images/redA3.png,Alpha,Beta,False,0.26714699999138247,11,False,7
11039,training_phase_1,2,2,24,materials/images/blueB2.png,Beta,Alpha,False,0.26833239999541547,11,False,7
11039,training_phase_1,2,3,25,materials/images/blueB4.png,Beta,Beta,True,0.0842731000011554,11,False,1
11039,training_phase_1,2,3,26,materials/images/blueB1.png,Beta,Alpha,False,0.7532004000095185,11,False,1
11039,training_phase_1,2,3,27,materials/images/blueB2.png,Beta,Beta,True,0.09164440000313334,11,False,2
11039,training_phase_1,2,3,28,materials/images/redA5.png,Alpha,Beta,False,0.23364599999331404,11,False,2
11039,training_phase_1,2,3,29,materials/images/blueB5.png,Beta,Beta,True,0.20454570000583772,11,False,3
11039,training_phase_1,2,3,30,materials/images/redA4.png,Alpha,Beta,False,1.0599808000115445,11,False,3
11039,training_phase_1,2,3,31,materials/images/blueB6.png,Beta,Beta,True,0.056964700008393265,11,False,4
11039,training_phase_1,2,3,32,materials/images/redA6.png,Alpha,Alpha,True,0.023206899990327656,11,False,5
11039,training_phase_1,2,3,33,materials/images/blueB3.png,Beta,Alpha,False,0.2817194999952335,11,False,5
11039,training_phase_1,2,3,34,materials/images/redA2.png,Alpha,Beta,False,0.3463719999999739,11,False,5
11039,training_phase_1,2,3,35,materials/images/redA3.png,Alpha,Alpha,True,0.5575301000062609,11,False,6
11039,training_phase_1,2,3,36,materials/images/redA1.png,Alpha,Alpha,True,0.09864609999931417,11,False,7
11039,training_phase_1,2,4,37,materials/images/redA3.png,Alpha,Alpha,True,0.15403709998645354,11,False,1
11039,training_phase_1,2,4,38,materials/images/blueB6.png,Beta,Beta,True,0.1693130000057863,11,False,2
11039,training_phase_1,2,4,39,materials/images/blueB2.png,Beta,Alpha,False,0.36488700000336394,11,False,2
11039,training_phase_1,2,4,40,materials/images/blueB4.png,Beta,Beta,True,0.1887325999996392,11,False,3
11039,training_phase_1,2,4,41,materials/images/blueB3.png,Beta,Beta,True,0.2073404999973718,11,False,4
11039,training_phase_1,2,4,42,materials/images/blueB1.png,Beta,Alpha,False,0.7224027000047499,11,False,4
11039,training_phase_1,2,4,43,materials/images/blueB5.png,Beta,Beta,True,0.018410400007269345,11,False,5
11039,training_phase_1,2,4,44,materials/images/redA6.png,Alpha,Beta,False,0.18231600000581238,11,False,5
11039,training_phase_1,2,4,45,materials/images/redA1.png,Alpha,Alpha,True,0.018558499999926426,11,False,6
11039,training_phase_1,2,4,46,materials/images/redA2.png,Alpha,Alpha,True,0.2298161000071559,11,False,7
11039,training_phase_1,2,4,47,materials/images/redA4.png,Alpha,Beta,False,0.2436594999890076,11,False,7
11039,training_phase_1,2,4,48,materials/images/redA5.png,Alpha,Alpha,True,0.023664499996812083,11,False,8
11039,training_phase_1,2,5,49,materials/images/redA2.png,Alpha,Alpha,True,0.14421499999298248,11,False,1
11039,training_phase_1,2,5,50,materials/images/blueB5.png,Beta,Beta,True,0.09369010000955313,11,False,2
11039,training_phase_1,2,5,51,materials/images/redA4.png,Alpha,Alpha,True,0.6052017999900272,11,False,3
11039,training_phase_1,2,5,52,materials/images/blueB3.png,Beta,Alpha,False,0.1716037000005599,11,False,3
11039,training_phase_1,2,5,53,materials/images/redA5.png,Alpha,Beta,False,0.36511719999543857,11,False,3
11039,training_phase_1,2,5,54,materials/images/blueB6.png,Beta,Beta,True,0.4302447999943979,11,False,4
11039,training_phase_1,2,5,55,materials/images/blueB2.png,Beta,Alpha,False,0.3541082000010647,11,False,4
11039,training_phase_1,2,5,56,materials/images/blueB4.png,Beta,Beta,True,0.3185712999984389,11,False,5
11039,training_phase_1,2,5,57,materials/images/redA3.png,Alpha,Beta,False,0.3703310999990208,11,False,5
11039,training_phase_1,2,5,58,materials/images/redA6.png,Alpha,Alpha,True,0.022262400001636706,11,False,6
11039,training_phase_1,2,5,59,materials/images/blueB1.png,Beta,Alpha,False,0.5047822000051383,11,False,6
11039,training_phase_1,2,5,60,materials/images/redA1.png,Alpha,Beta,False,0.34075750000192784,11,False,6
11039,training_phase_1,2,6,61,materials/images/redA1.png,Alpha,Alpha,True,0.1999355000007199,11,False,1
11039,training_phase_1,2,6,62,materials/images/blueB5.png,Beta,Beta,True,0.33029749999695923,11,False,2
11039,training_phase_1,2,6,63,materials/images/blueB6.png,Beta,Beta,True,0.07995880000817124,11,False,3
11039,training_phase_1,2,6,64,materials/images/redA6.png,Alpha,Alpha,True,0.2065781999990577,11,False,4
11039,training_phase_1,2,6,65,materials/images/blueB2.png,Beta,Alpha,False,0.07161680000717752,11,False,4
11039,training_phase_1,2,6,66,materials/images/redA2.png,Alpha,Alpha,True,0.6659193999948911,11,False,5
11039,training_phase_1,2,6,67,materials/images/redA5.png,Alpha,Alpha,True,0.23438639999949373,11,False,6
11039,training_phase_1,2,6,68,materials/images/redA3.png,Alpha,Alpha,True,0.07512890000361949,11,False,7
11039,training_phase_1,2,6,69,materials/images/blueB3.png,Beta,Beta,True,0.5017379000055371,11,False,8
11039,training_phase_1,2,6,70,materials/images/redA4.png,Alpha,Alpha,True,0.1299901000020327,11,False,9
11039,training_phase_1,2,6,71,materials/images/blueB1.png,Beta,Beta,True,0.26057569999829866,11,False,10
11039,training_phase_1,2,6,72,materials/images/blueB4.png,Beta,Beta,True,0.018522899990784936,11,True,11
pnum,phase_id,condition,block_data,trial_num,stim,correct_category,response,hit,rt,criterian,met_criterian,num_correct_in_block
11039,test_phase,2,1,1,materials/images/yGen5.png,test,Beta,gen,0.6956355000002077,1,True,1
11039,test_phase,2,1,2,materials/images/blueB5.png,Beta,Beta,gen,0.4831371000036597,1,True,2
11039,test_phase,2,1,3,materials/images/yGen1.png,test,Alpha,gen,0.2969362000003457,1,True,3
11039,test_phase,2,1,4,materials/images/blueB6.png,Beta,Beta,gen,0.4514292999956524,1,True,4
11039,test_phase,2,1,5,materials/images/redA1.png,Alpha,Alpha,gen,0.6716280000109691,1,True,5
11039,test_phase,2,1,6,materials/images/yGen4.png,test,Beta,gen,0.057388600005651824,1,True,6
11039,test_phase,2,1,7,materials/images/redA3.png,Alpha,Alpha,gen,0.04649290000088513,1,True,7
11039,test_phase,2,1,8,materials/images/blueB4.png,Beta,Beta,gen,1.32617269999173,1,True,8
11039,test_phase,2,1,9,materials/images/yGen2.png,test,Beta,gen,0.18901529999857303,1,True,9
11039,test_phase,2,1,10,materials/images/blueB2.png,Beta,Alpha,gen,0.16727450001053512,1,True,10
11039,test_phase,2,1,11,materials/images/redA6.png,Alpha,Beta,gen,0.46694889999344014,1,True,11
11039,test_phase,2,1,12,materials/images/redA4.png,Alpha,Alpha,gen,0.26128540000354405,1,True,12
11039,test_phase,2,1,13,materials/images/redA5.png,Alpha,Alpha,gen,0.23355830000946298,1,True,13
11039,test_phase,2,1,14,materials/images/redA2.png,Alpha,Alpha,gen,0.20157620000827592,1,True,14
11039,test_phase,2,1,15,materials/images/blueB1.png,Beta,Beta,gen,2.3961225999955786,1,True,15
11039,test_phase,2,1,16,materials/images/blueB3.png,Beta,Beta,gen,0.3851177999895299,1,True,16
11039,test_phase,2,1,17,materials/images/yGen3.png,test,Alpha,gen,0.4691043999919202,1,True,17
pnum,phase_id,condition,block_data,trial_num,stim,correct_category,response,hit,rt,criterian,met_criterian,num_correct_in_block
11039,training_phase_2,2,1,1,materials/images/blackG6.png,Gamma,Beta,False,1.6423508000007132,30,False,0
11039,training_phase_2,2,1,2,materials/images/redA2.png,Alpha,Alpha,True,0.3064275000069756,30,False,1
11039,training_phase_2,2,1,3,materials/images/greenD3.png,Delta,Gamma,False,1.227685099991504,30,False,1
11039,training_phase_2,2,1,4,materials/images/blackG4.png,Gamma,Beta,False,0.8715787999972235,30,False,1
11039,training_phase_2,2,1,5,materials/images/greenD6.png,Delta,Gamma,False,0.02410300000337884,30,False,1
11039,training_phase_2,2,1,6,materials/images/blackG5.png,Gamma,Beta,False,0.03969429999415297,30,False,1
11039,training_phase_2,2,1,7,materials/images/blueB3.png,Beta,Alpha,False,0.19433820000267588,30,False,1
11039,training_phase_2,2,1,8,materials/images/redA6.png,Alpha,Beta,False,0.33732059999601915,30,False,1
11039,training_phase_2,2,1,9,materials/images/greenD5.png,Delta,Alpha,False,0.1626284000085434,30,False,1
11039,training_phase_2,2,1,10,materials/images/greenD1.png,Delta,Beta,False,0.42942099999345373,30,False,1
11039,training_phase_2,2,1,11,materials/images/blackG1.png,Gamma,Alpha,False,0.030016500008059666,30,False,1
11039,training_phase_2,2,1,12,materials/images/blackG2.png,Gamma,Gamma,True,0.6897338999988278,30,False,2
11039,training_phase_2,2,1,13,materials/images/blueB5.png,Beta,Delta,False,1.1108392000023741,30,False,2
11039,training_phase_2,2,1,14,materials/images/blueB6.png,Beta,Beta,True,0.03266789999906905,30,False,3
11039,training_phase_2,2,1,15,materials/images/blueB4.png,Beta,Alpha,False,0.4005288000043947,30,False,3
11039,training_phase_2,2,1,16,materials/images/redA3.png,Alpha,Gamma,False,0.20448270000633784,30,False,3
11039,training_phase_2,2,1,17,materials/images/blueB1.png,Beta,Beta,True,0.30837280000559986,30,False,4
11039,training_phase_2,2,1,18,materials/images/greenD4.png,Delta,Gamma,False,1.951934099997743,30,False,4
11039,training_phase_2,2,1,19,materials/images/greenD2.png,Delta,Beta,False,0.2069744000036735,30,False,4
11039,training_phase_2,2,1,20,materials/images/redA4.png,Alpha,Alpha,True,0.4953072000062093,30,False,5
11039,training_phase_2,2,1,21,materials/images/blackG3.png,Gamma,Gamma,True,1.07319519999146,30,False,6
11039,training_phase_2,2,1,22,materials/images/redA1.png,Alpha,Delta,False,0.41732320000301115,30,False,6
11039,training_phase_2,2,1,23,materials/images/blueB2.png,Beta,Beta,True,0.19798400001309346,30,False,7
11039,training_phase_2,2,1,24,materials/images/redA5.png,Alpha,Alpha,True,0.17100779998872895,30,False,8
11039,training_phase_2,2,2,25,materials/images/blueB6.png,Beta,Gamma,False,0.2795471000135876,30,False,0
11039,training_phase_2,2,2,26,materials/images/greenD1.png,Delta,Beta,False,0.12084519999916665,30,False,0
11039,training_phase_2,2,2,27,materials/images/greenD4.png,Delta,Delta,True,0.02945579998777248,30,False,1
11039,training_phase_2,2,2,28,materials/images/blueB1.png,Beta,Delta,False,0.13292830000864342,30,False,1
11039,training_phase_2,2,2,29,materials/images/blackG6.png,Gamma,Gamma,True,0.09327469998970628,30,False,2
11039,training_phase_2,2,2,30,materials/images/greenD3.png,Delta,Delta,True,0.31030310000642203,30,False,3
11039,training_phase_2,2,2,31,materials/images/blueB3.png,Beta,Alpha,False,0.5092642000090564,30,False,3
11039,training_phase_2,2,2,32,materials/images/blackG1.png,Gamma,Alpha,False,0.0334391000069445,30,False,3
11039,training_phase_2,2,2,33,materials/images/blackG5.png,Gamma,Beta,False,0.08894529999815859,30,False,3
11039,training_phase_2,2,2,34,materials/images/redA3.png,Alpha,Alpha,True,0.3652088999951957,30,False,4
11039,training_phase_2,2,2,35,materials/images/greenD5.png,Delta,Delta,True,0.40376840000681113,30,False,5
11039,training_phase_2,2,2,36,materials/images/blackG4.png,Gamma,Gamma,True,0.4798471999965841,30,False,6
11039,training_phase_2,2,2,37,materials/images/redA1.png,Alpha,Alpha,True,1.4747439000057057,30,False,7
11039,training_phase_2,2,2,38,materials/images/greenD2.png,Delta,Gamma,False,0.21579950000159442,30,False,7
11039,training_phase_2,2,2,39,materials/images/redA5.png,Alpha,Delta,False,0.6641550000058487,30,False,7
11039,training_phase_2,2,2,40,materials/images/blueB4.png,Beta,Gamma,False,2.050868200007244,30,False,7
11039,training_phase_2,2,2,41,materials/images/redA2.png,Alpha,Beta,False,0.38042590000259224,30,False,7
11039,training_phase_2,2,2,42,materials/images/blueB5.png,Beta,Gamma,False,0.6255143000016687,30,False,7
11039,training_phase_2,2,2,43,materials/images/redA4.png,Alpha,Alpha,True,3.4908093999983976,30,False,8
11039,training_phase_2,2,2,44,materials/images/blueB2.png,Beta,Beta,True,1.075892200009548,30,False,9
11039,training_phase_2,2,2,45,materials/images/blackG2.png,Gamma,Delta,False,0.9005079999915324,30,False,9
11039,training_phase_2,2,2,46,materials/images/blackG3.png,Gamma,Gamma,True,0.12265639999532141,30,False,10
11039,training_phase_2,2,2,47,materials/images/redA6.png,Alpha,Beta,False,0.4933020000025863,30,False,10
11039,training_phase_2,2,2,48,materials/images/greenD6.png,Delta,Gamma,False,0.22657889999391045,30,False,10
