pnum,phase_id,condition,block_data,trial_num,stim,correct_category,response,hit,rt,criterian,met_criterian,num_correct_in_block
11041,training_phase_1,2,1,1,materials/images/redA4.png,Alpha,Beta,False,0.9115044999925885,11,False,0
11041,training_phase_1,2,1,2,materials/images/blueB5.png,Beta,Alpha,False,1.979250200005481,11,False,0
11041,training_phase_1,2,1,3,materials/images/blueB4.png,Beta,Alpha,False,3.3139228000072762,11,False,0
11041,training_phase_1,2,1,4,materials/images/redA2.png,Alpha,Beta,False,1.656446999986656,11,False,0
11041,training_phase_1,2,1,5,materials/images/blueB6.png,Beta,Beta,True,2.281727100024,11,False,1
11041,training_phase_1,2,1,6,materials/images/blueB1.png,Beta,Alpha,False,1.5274029000138398,11,False,1
11041,training_phase_1,2,1,7,materials/images/redA6.png,Alpha,Beta,False,1.7847914999874774,11,False,1
11041,training_phase_1,2,1,8,materials/images/redA5.png,Alpha,Alpha,True,2.6484877000038978,11,False,2
11041,training_phase_1,2,1,9,materials/images/blueB2.png,Beta,Alpha,False,0.7682290000084322,11,False,2
11041,training_phase_1,2,1,10,materials/images/redA1.png,Alpha,Beta,False,0.659523199981777,11,False,2
11041,training_phase_1,2,1,11,materials/images/blueB3.png,Beta,Alpha,False,0.6857012999826111,11,False,2
11041,training_phase_1,2,1,12,materials/images/redA3.png,Alpha,Alpha,True,1.2139093999867328,11,False,3
11041,training_phase_1,2,2,13,materials/images/redA6.png,Alpha,Beta,False,2.077725399984047,11,False,0
11041,training_phase_1,2,2,14,materials/images/redA1.png,Alpha,Beta,False,0.5166408999939449,11,False,0
11041,training_phase_1,2,2,15,materials/images/blueB1.png,Beta,Alpha,False,2.474233299988555,11,False,0
11041,training_phase_1,2,2,16,materials/images/blueB3.png,Beta,Alpha,False,3.3515944000100717,11,False,0
11041,training_phase_1,2,2,17,materials/images/blueB4.png,Beta,Alpha,False,0.1677780000027269,11,False,0
11041,training_phase_1,2,2,18,materials/images/redA3.png,Alpha,Alpha,True,0.2598316000076011,11,False,1
11041,training_phase_1,2,2,19,materials/images/redA5.png,Alpha,Alpha,True,1.4143782000173815,11,False,2
11041,training_phase_1,2,2,20,materials/images/blueB2.png,Beta,Alpha,False,0.9878771000076085,11,False,2
11041,training_phase_1,2,2,21,materials/images/blueB5.png,Beta,Beta,True,1.0659202999959234,11,False,3
11041,training_phase_1,2,2,22,materials/images/redA4.png,Alpha,Alpha,True,0.95896139999968,11,False,4
11041,training_phase_1,2,2,23,materials/images/blueB6.png,Beta,Alpha,False,0.502044199994998,11,False,4
11041,training_phase_1,2,2,24,materials/images/redA2.png,Alpha,Beta,False,0.02495790002285503,11,False,4
11041,training_phase_1,2,3,25,materials/images/redA4.png,Alpha,Alpha,True,10.230287799990037,11,False,1
11041,training_phase_1,2,3,26,materials/images/redA2.png,Alpha,Alpha,True,0.5253171999938786,11,False,2
11041,training_phase_1,2,3,27,materials/images/blueB3.png,Beta,Beta,True,1.4765417000162415,11,False,3
11041,training_phase_1,2,3,28,materials/images/blueB4.png,Beta,Beta,True,1.205385400011437,11,False,4
11041,training_phase_1,2,3,29,materials/images/blueB2.png,Beta,Alpha,False,0.4711587999772746,11,False,4
11041,training_phase_1,2,3,30,materials/images/blueB5.png,Beta,Beta,True,0.3248985999962315,11,False,5
11041,training_phase_1,2,3,31,materials/images/redA3.png,Alpha,Beta,False,0.9527217999857385,11,False,5
11041,training_phase_1,2,3,32,materials/images/redA5.png,Alpha,Beta,False,4.679486000008183,11,False,5
11041,training_phase_1,2,3,33,materials/images/blueB1.png,Beta,Alpha,False,0.3631763000157662,11,False,5
11041,training_phase_1,2,3,34,materials/images/redA1.png,Alpha,Beta,False,0.5331098999886308,11,False,5
11041,training_phase_1,2,3,35,materials/images/blueB6.png,Beta,Alpha,False,0.7935235999757424,11,False,5
11041,training_phase_1,2,3,36,materials/images/redA6.png,Alpha,Beta,False,0.3844061999989208,11,False,5
11041,training_phase_1,2,4,37,materials/images/redA5.png,Alpha,Beta,False,2.122758100013016,11,False,0
11041,training_phase_1,2,4,38,materials/images/redA4.png,Alpha,Beta,False,0.08007490000454709,11,False,0
11041,training_phase_1,2,4,39,materials/images/redA1.png,Alpha,Alpha,True,0.10227989999111742,11,False,1
11041,training_phase_1,2,4,40,materials/images/blueB2.png,Beta,Alpha,False,0.9323776999954134,11,False,1
11041,training_phase_1,2,4,41,materials/images/blueB6.png,Beta,Beta,True,0.2523485999845434,11,False,2
11041,training_phase_1,2,4,42,materials/images/blueB3.png,Beta,Alpha,False,1.2187591000110842,11,False,2
11041,training_phase_1,2,4,43,materials/images/redA6.png,Alpha,Alpha,True,0.6406203999940772,11,False,3
11041,training_phase_1,2,4,44,materials/images/redA2.png,Alpha,Beta,False,3.3021386000036728,11,False,3
11041,training_phase_1,2,4,45,materials/images/blueB1.png,Beta,Beta,True,0.5145073000167031,11,False,4
11041,training_phase_1,2,4,46,materials/images/blueB5.png,Beta,Beta,True,1.0011255999852438,11,False,5
11041,training_phase_1,2,4,47,materials/images/redA3.png,Alpha,Alpha,True,2.386449499987066,11,False,6
11041,training_phase_1,2,4,48,materials/images/blueB4.png,Beta,Beta,True,1.7106625000014901,11,False,7
11041,training_phase_1,2,5,49,materials/images/redA1.png,Alpha,Alpha,True,0.36697600001934916,11,False,1
11041,training_phase_1,2,5,50,materials/images/blueB2.png,Beta,Beta,True,0.0669863999937661,11,False,2
11041,training_phase_1,2,5,51,materials/images/redA6.png,Alpha,Alpha,True,0.8700629999802914,11,False,3
11041,training_phase_1,2,5,52,materials/images/redA2.png,Alpha,Beta,False,1.8002309000003152,11,False,3
11041,training_phase_1,2,5,53,materials/images/redA4.png,Alpha,Alpha,True,0.2506787999882363,11,False,4
11041,training_phase_1,2,5,54,materials/images/blueB5.png,Beta,Beta,True,2.351097700011451,11,False,5
11041,training_phase_1,2,5,55,materials/images/redA3.png,Alpha,Alpha,True,0.2841183000127785,11,False,6
11041,training_phase_1,2,5,56,materials/images/blueB1.png,Beta,Beta,True,1.208974599983776,11,False,7
11041,training_phase_1,2,5,57,materials/images/blueB4.png,Beta,Beta,True,1.2699392999929842,11,False,8
11041,training_phase_1,2,5,58,materials/images/blueB6.png,Beta,Alpha,False,0.019739899988053367,11,False,8
11041,training_phase_1,2,5,59,materials/images/blueB3.png,Beta,Alpha,False,0.416784800007008,11,False,8
11041,training_phase_1,2,5,60,materials/images/redA5.png,Alpha,Beta,False,1.673106000002008,11,False,8
11041,training_phase_1,2,6,61,materials/images/redA2.png,Alpha,Alpha,True,0.04691599999205209,11,False,1
11041,training_phase_1,2,6,62,materials/images/blueB5.png,Beta,Beta,True,1.4498868000227958,11,False,2
11041,training_phase_1,2,6,63,materials/images/blueB4.png,Beta,Alpha,False,0.15919190002023242,11,False,2
11041,training_phase_1,2,6,64,materials/images/blueB3.png,Beta,Alpha,False,0.023658799997065216,11,False,2
11041,training_phase_1,2,6,65,materials/images/redA3.png,Alpha,Beta,False,0.08721729999524541,11,False,2
11041,training_phase_1,2,6,66,materials/images/blueB2.png,Beta,Alpha,False,1.174648599990178,11,False,2
11041,training_phase_1,2,6,67,materials/images/redA6.png,Alpha,Alpha,True,0.2034898999845609,11,False,3
11041,training_phase_1,2,6,68,materials/images/blueB6.png,Beta,Beta,True,0.4215926000033505,11,False,4
11041,training_phase_1,2,6,69,materials/images/redA4.png,Alpha,Beta,False,1.201703800004907,11,False,4
11041,training_phase_1,2,6,70,materials/images/blueB1.png,Beta,Beta,True,0.4153455999912694,11,False,5
11041,training_phase_1,2,6,71,materials/images/redA1.png,Alpha,Alpha,True,0.07961440001963638,11,False,6
11041,training_phase_1,2,6,72,materials/images/redA5.png,Alpha,Alpha,True,0.20614939997904003,11,False,7
11041,training_phase_1,2,7,73,materials/images/blueB3.png,Beta,Beta,True,0.38812409999081865,11,False,1
11041,training_phase_1,2,7,74,materials/images/redA5.png,Alpha,Alpha,True,0.08740580000448972,11,False,2
11041,training_phase_1,2,7,75,materials/images/redA2.png,Alpha,Alpha,True,0.6766040000075009,11,False,3
11041,training_phase_1,2,7,76,materials/images/blueB4.png,Beta,Beta,True,1.8069898000103422,11,False,4
11041,training_phase_1,2,7,77,materials/images/blueB5.png,Beta,Beta,True,0.46040690000518225,11,False,5
11041,training_phase_1,2,7,78,materials/images/redA1.png,Alpha,Alpha,True,0.01914059999398887,11,False,6
11041,training_phase_1,2,7,79,materials/images/redA4.png,Alpha,Alpha,True,0.5737301000044681,11,False,7
11041,training_phase_1,2,7,80,materials/images/blueB1.png,Beta,Beta,True,0.03148229999351315,11,False,8
11041,training_phase_1,2,7,81,materials/images/blueB6.png,Beta,Alpha,False,0.4839446000114549,11,False,8
11041,training_phase_1,2,7,82,materials/images/blueB2.png,Beta,Alpha,False,1.502478299982613,11,False,8
11041,training_phase_1,2,7,83,materials/images/redA6.png,Alpha,Alpha,True,0.4956905999861192,11,False,9
11041,training_phase_1,2,7,84,materials/images/redA3.png,Alpha,Beta,False,1.3293588000233285,11,False,9
11041,training_phase_1,2,8,85,materials/images/redA6.png,Alpha,Alpha,True,1.8336034000094514,11,False,1
11041,training_phase_1,2,8,86,materials/images/blueB2.png,Beta,Beta,True,0.2004919000028167,11,False,2
11041,training_phase_1,2,8,87,materials/images/blueB3.png,Beta,Beta,True,1.3024938000016846,11,False,3
11041,training_phase_1,2,8,88,materials/images/redA2.png,Alpha,Alpha,True,0.0192179000005126,11,False,4
11041,training_phase_1,2,8,89,materials/images/redA1.png,Alpha,Alpha,True,0.05409890000009909,11,False,5
11041,training_phase_1,2,8,90,materials/images/blueB4.png,Beta,Beta,True,1.4374979000131134,11,False,6
11041,training_phase_1,2,8,91,materials/images/redA3.png,Alpha,Beta,False,1.3359564999991562,11,False,6
11041,training_phase_1,2,8,92,materials/images/redA5.png,Alpha,Beta,False,0.1328819000045769,11,False,6
11041,training_phase_1,2,8,93,materials/images/blueB5.png,Beta,Beta,True,0.898838799999794,11,False,7
11041,training_phase_1,2,8,94,materials/images/redA4.png,Alpha,Alpha,True,0.46737719999509864,11,False,8
11041,training_phase_1,2,8,95,materials/images/blueB6.png,Beta,Alpha,False,0.358401400008006,11,False,8
11041,training_phase_1,2,8,96,materials/images/blueB1.png,Beta,Beta,True,1.3083621000114363,11,False,9
pnum,phase_id,condition,block_data,trial_num,stim,correct_category,response,hit,rt,criterian,met_criterian,num_correct_in_block
11041,test_phase,2,1,1,materials/images/redA6.png,Alpha,Beta,gen,0.6220278000109829,1,True,1
11041,test_phase,2,1,2,materials/images/redA3.png,Alpha,Beta,gen,2.8221243000007235,1,True,2
11041,test_phase,2,1,3,materials/images/blueB6.png,Beta,Beta,gen,0.7300595999986399,1,True,3
11041,test_phase,2,1,4,materials/images/redA2.png,Alpha,Alpha,gen,0.33375739998882636,1,True,4
11041,test_phase,2,1,5,materials/images/yGen5.png,test,Beta,gen,1.5667799999937415,1,True,5
11041,test_phase,2,1,6,materials/images/blueB4.png,Beta,Alpha,gen,0.4091635000077076,1,True,6
11041,test_phase,2,1,7,materials/images/blueB3.png,Beta,Beta,gen,0.9653783999965526,1,True,7
11041,test_phase,2,1,8,materials/images/redA1.png,Alpha,Alpha,gen,0.02433539999765344,1,True,8
11041,test_phase,2,1,9,materials/images/blueB2.png,Beta,Beta,gen,7.664236399985384,1,True,9
11041,test_phase,2,1,10,materials/images/yGen4.png,test,Beta,gen,0.5375584999856073,1,True,10
11041,test_phase,2,1,11,materials/images/yGen1.png,test,Alpha,gen,1.2313183000078425,1,True,11
11041,test_phase,2,1,12,materials/images/redA4.png,Alpha,Beta,gen,1.8692233999900054,1,True,12
11041,test_phase,2,1,13,materials/images/yGen2.png,test,Beta,gen,0.09586850000778213,1,True,13
11041,test_phase,2,1,14,materials/images/redA5.png,Alpha,Alpha,gen,0.4032230000011623,1,True,14
11041,test_phase,2,1,15,materials/images/yGen3.png,test,Alpha,gen,0.02419919997919351,1,True,15
11041,test_phase,2,1,16,materials/images/blueB1.png,Beta,Beta,gen,0.2786892000003718,1,True,16
11041,test_phase,2,1,17,materials/images/blueB5.png,Beta,Beta,gen,0.032759099995018914,1,True,17
pnum,phase_id,condition,block_data,trial_num,stim,correct_category,response,hit,rt,criterian,met_criterian,num_correct_in_block
11041,training_phase_2,2,1,1,materials/images/greenD4.png,Delta,Beta,False,2.0030243000073824,30,False,0
11041,training_phase_2,2,1,2,materials/images/blueB4.png,Beta,Beta,True,0.45993840001756325,30,False,1
11041,training_phase_2,2,1,3,materials/images/redA4.png,Alpha,Alpha,True,0.23316679999697953,30,False,2
11041,training_phase_2,2,1,4,materials/images/redA6.png,Alpha,Alpha,True,3.004971700021997,30,False,3
11041,training_phase_2,2,1,5,materials/images/redA3.png,Alpha,Alpha,True,0.8795147000055294,30,False,4
11041,training_phase_2,2,1,6,materials/images/redA2.png,Alpha,Alpha,True,0.025568500015651807,30,False,5
11041,training_phase_2,2,1,7,materials/images/redA1.png,Alpha,Alpha,True,0.05286329999216832,30,False,6
11041,training_phase_2,2,1,8,materials/images/blackG6.png,Gamma,Gamma,True,1.1871143000025768,30,False,7
11041,training_phase_2,2,1,9,materials/images/greenD5.png,Delta,Beta,False,0.20051610001246445,30,False,7
11041,training_phase_2,2,1,10,materials/images/greenD3.png,Delta,Delta,True,0.35844310000538826,30,False,8
11041,training_phase_2,2,1,11,materials/images/greenD2.png,Delta,Beta,False,0.20916279999073595,30,False,8
11041,training_phase_2,2,1,12,materials/images/blueB5.png,Beta,Beta,True,0.54848860000493,30,False,9
11041,training_phase_2,2,1,13,materials/images/blueB3.png,Beta,Delta,False,2.4910693999845535,30,False,9
11041,training_phase_2,2,1,14,materials/images/blackG3.png,Gamma,Beta,False,0.1883549999911338,30,False,9
11041,training_phase_2,2,1,15,materials/images/blueB2.png,Beta,Alpha,False,0.8452893999929074,30,False,9
11041,training_phase_2,2,1,16,materials/images/blackG2.png,Gamma,Alpha,False,0.800222699996084,30,False,9
11041,training_phase_2,2,1,17,materials/images/blackG4.png,Gamma,Beta,False,0.020762000000104308,30,False,9
11041,training_phase_2,2,1,18,materials/images/greenD6.png,Delta,Beta,False,2.9420180000015534,30,False,9
11041,training_phase_2,2,1,19,materials/images/blueB1.png,Beta,Alpha,False,0.2529948000155855,30,False,9
11041,training_phase_2,2,1,20,materials/images/greenD1.png,Delta,Gamma,False,3.7109406999952625,30,False,9
11041,training_phase_2,2,1,21,materials/images/blackG1.png,Gamma,Alpha,False,0.042291599995223805,30,False,9
11041,training_phase_2,2,1,22,materials/images/redA5.png,Alpha,Alpha,True,0.5136860999919008,30,False,10
11041,training_phase_2,2,1,23,materials/images/blueB6.png,Beta,Delta,False,0.2742324999999255,30,False,10
11041,training_phase_2,2,1,24,materials/images/blackG5.png,Gamma,Gamma,True,0.4557502000243403,30,False,11
11041,training_phase_2,2,2,25,materials/images/blackG6.png,Gamma,Gamma,True,0.987840599991614,30,False,1
11041,training_phase_2,2,2,26,materials/images/greenD1.png,Delta,Beta,False,1.3801166999910492,30,False,1
11041,training_phase_2,2,2,27,materials/images/greenD3.png,Delta,Beta,False,1.0627246999938507,30,False,1
11041,training_phase_2,2,2,28,materials/images/greenD2.png,Delta,Beta,False,0.5940431999915745,30,False,1
11041,training_phase_2,2,2,29,materials/images/blueB5.png,Beta,Delta,False,0.32373949998873286,30,False,1
11041,training_phase_2,2,2,30,materials/images/blackG5.png,Gamma,Gamma,True,1.4001768000016455,30,False,2
11041,training_phase_2,2,2,31,materials/images/greenD5.png,Delta,Beta,False,0.26572480000322685,30,False,2
11041,training_phase_2,2,2,32,materials/images/blackG3.png,Gamma,Alpha,False,0.018922699993709102,30,False,2
11041,training_phase_2,2,2,33,materials/images/blueB6.png,Beta,Beta,True,0.5323955999920145,30,False,3
11041,training_phase_2,2,2,34,materials/images/blueB1.png,Beta,Alpha,False,0.02512790000764653,30,False,3
11041,training_phase_2,2,2,35,materials/images/blackG1.png,Gamma,Beta,False,0.020644000003812835,30,False,3
11041,training_phase_2,2,2,36,materials/images/blueB4.png,Beta,Gamma,False,0.28489330000593327,30,False,3
11041,training_phase_2,2,2,37,materials/images/blackG4.png,Gamma,Gamma,True,0.21660380001412705,30,False,4
11041,training_phase_2,2,2,38,materials/images/redA5.png,Alpha,Beta,False,0.9800705999950878,30,False,4
11041,training_phase_2,2,2,39,materials/images/redA4.png,Alpha,Beta,False,0.44348069999250583,30,False,4
11041,training_phase_2,2,2,40,materials/images/redA1.png,Alpha,Alpha,True,0.8979646999796387,30,False,5
11041,training_phase_2,2,2,41,materials/images/blueB3.png,Beta,Delta,False,2.7254481999843847,30,False,5
11041,training_phase_2,2,2,42,materials/images/greenD4.png,Delta,Delta,True,0.2403459000051953,30,False,6
11041,training_phase_2,2,2,43,materials/images/redA2.png,Alpha,Alpha,True,0.10176119999960065,30,False,7
11041,training_phase_2,2,2,44,materials/images/blueB2.png,Beta,Gamma,False,0.10763389998464845,30,False,7
11041,training_phase_2,2,2,45,materials/images/greenD6.png,Delta,Delta,True,1.0297497999854386,30,False,8
11041,training_phase_2,2,2,46,materials/images/redA3.png,Alpha,Beta,False,0.3615700999798719,30,False,8
11041,training_phase_2,2,2,47,materials/images/blackG2.png,Gamma,Alpha,False,0.4299019000027329,30,False,8
11041,training_phase_2,2,2,48,materials/images/redA6.png,Alpha,Beta,False,0.018698900006711483,30,False,8
