pnum,phase_id,condition,block_data,trial_num,stim,correct_category,response,hit,rt,criterian,met_criterian,num_correct_in_block
11055,training_phase_1,2,1,1,materials/images/redA3.png,Alpha,Alpha,True,3.422322600032203,11,False,1
11055,training_phase_1,2,1,2,materials/images/redA1.png,Alpha,Alpha,True,1.945051999995485,11,False,2
11055,training_phase_1,2,1,3,materials/images/blueB1.png,Beta,Alpha,False,1.2842385000549257,11,False,2
11055,training_phase_1,2,1,4,materials/images/redA6.png,Alpha,Alpha,True,3.2166668999707326,11,False,3
11055,training_phase_1,2,1,5,materials/images/blueB6.png,Beta,Alpha,False,0.22056009992957115,11,False,3
11055,training_phase_1,2,1,6,materials/images/redA4.png,Alpha,Alpha,True,5.091925599961542,11,False,4
11055,training_phase_1,2,1,7,materials/images/blueB2.png,Beta,Beta,True,0.6784877000609413,11,False,5
11055,training_phase_1,2,1,8,materials/images/blueB5.png,Beta,Beta,True,1.1785067000892013,11,False,6
11055,training_phase_1,2,1,9,materials/images/blueB4.png,Beta,Beta,True,0.15964150009676814,11,False,7
11055,training_phase_1,2,1,10,materials/images/redA5.png,Alpha,Alpha,True,1.4946134999627247,11,False,8
11055,training_phase_1,2,1,11,materials/images/blueB3.png,Beta,Beta,True,0.6579320000018924,11,False,9
11055,training_phase_1,2,1,12,materials/images/redA2.png,Alpha,Alpha,True,0.4946599999675527,11,False,10
11055,training_phase_1,2,2,13,materials/images/redA3.png,Alpha,Alpha,True,0.821048800018616,11,False,1
11055,training_phase_1,2,2,14,materials/images/blueB1.png,Beta,Beta,True,0.20355340000241995,11,False,2
11055,training_phase_1,2,2,15,materials/images/blueB5.png,Beta,Beta,True,0.37667120003607124,11,False,3
11055,training_phase_1,2,2,16,materials/images/redA6.png,Alpha,Beta,False,0.34806420002132654,11,False,3
11055,training_phase_1,2,2,17,materials/images/blueB4.png,Beta,Beta,True,0.7570789000019431,11,False,4
11055,training_phase_1,2,2,18,materials/images/redA4.png,Alpha,Beta,False,1.8312563999788836,11,False,4
11055,training_phase_1,2,2,19,materials/images/redA2.png,Alpha,Alpha,True,3.778741699992679,11,False,5
11055,training_phase_1,2,2,20,materials/images/blueB2.png,Beta,Beta,True,1.689187000039965,11,False,6
11055,training_phase_1,2,2,21,materials/images/blueB6.png,Beta,Beta,True,4.979373300098814,11,False,7
11055,training_phase_1,2,2,22,materials/images/blueB3.png,Beta,Alpha,False,1.0830370000330731,11,False,7
11055,training_phase_1,2,2,23,materials/images/redA1.png,Alpha,Alpha,True,1.0091573999961838,11,False,8
11055,training_phase_1,2,2,24,materials/images/redA5.png,Alpha,Alpha,True,0.807008899981156,11,False,9
11055,training_phase_1,2,3,25,materials/images/redA1.png,Alpha,Alpha,True,3.198451399919577,11,False,1
11055,training_phase_1,2,3,26,materials/images/blueB2.png,Beta,Alpha,False,0.8422495999839157,11,False,1
11055,training_phase_1,2,3,27,materials/images/redA3.png,Alpha,Alpha,True,2.2027891000034288,11,False,2
11055,training_phase_1,2,3,28,materials/images/redA2.png,Alpha,Alpha,True,0.23864170000888407,11,False,3
11055,training_phase_1,2,3,29,materials/images/blueB1.png,Beta,Beta,True,0.199542099959217,11,False,4
11055,training_phase_1,2,3,30,materials/images/redA4.png,Alpha,Beta,False,0.1991914000827819,11,False,4
11055,training_phase_1,2,3,31,materials/images/blueB5.png,Beta,Beta,True,0.16965649998746812,11,False,5
11055,training_phase_1,2,3,32,materials/images/redA5.png,Alpha,Beta,False,0.49426649999804795,11,False,5
11055,training_phase_1,2,3,33,materials/images/blueB4.png,Beta,Beta,True,1.1561291000107303,11,False,6
11055,training_phase_1,2,3,34,materials/images/redA6.png,Alpha,Beta,False,0.6735995999770239,11,False,6
11055,training_phase_1,2,3,35,materials/images/blueB6.png,Beta,Beta,True,0.24111149995587766,11,False,7
11055,training_phase_1,2,3,36,materials/images/blueB3.png,Beta,Beta,True,0.3760316000552848,11,False,8
11055,training_phase_1,2,4,37,materials/images/blueB4.png,Beta,Alpha,False,0.6254825000651181,11,False,0
11055,training_phase_1,2,4,38,materials/images/blueB2.png,Beta,Beta,True,4.176213899976574,11,False,1
11055,training_phase_1,2,4,39,materials/images/blueB6.png,Beta,Beta,True,2.367446699994616,11,False,2
11055,training_phase_1,2,4,40,materials/images/redA4.png,Alpha,Beta,False,5.82199710002169,11,False,2
11055,training_phase_1,2,4,41,materials/images/redA2.png,Alpha,Beta,False,0.19312009995337576,11,False,2
11055,training_phase_1,2,4,42,materials/images/redA6.png,Alpha,Beta,False,0.390815099934116,11,False,2
11055,training_phase_1,2,4,43,materials/images/redA5.png,Alpha,Beta,False,0.6927889999933541,11,False,2
11055,training_phase_1,2,4,44,materials/images/blueB1.png,Beta,Beta,True,0.2032179000088945,11,False,3
11055,training_phase_1,2,4,45,materials/images/blueB3.png,Beta,Beta,True,2.3084514000220224,11,False,4
11055,training_phase_1,2,4,46,materials/images/redA1.png,Alpha,Alpha,True,0.21908409998286515,11,False,5
11055,training_phase_1,2,4,47,materials/images/blueB5.png,Beta,Beta,True,0.7410262000048533,11,False,6
11055,training_phase_1,2,4,48,materials/images/redA3.png,Alpha,Alpha,True,2.5507534000789747,11,False,7
11055,training_phase_1,2,5,49,materials/images/redA3.png,Alpha,Alpha,True,0.3525171000510454,11,False,1
11055,training_phase_1,2,5,50,materials/images/redA4.png,Alpha,Alpha,True,1.6306618999224156,11,False,2
11055,training_phase_1,2,5,51,materials/images/redA1.png,Alpha,Alpha,True,2.273380999919027,11,False,3
11055,training_phase_1,2,5,52,materials/images/redA5.png,Alpha,Beta,False,1.0354742999188602,11,False,3
11055,training_phase_1,2,5,53,materials/images/blueB6.png,Beta,Beta,True,0.0196417000843212,11,False,4
11055,training_phase_1,2,5,54,materials/images/blueB1.png,Beta,Beta,True,1.0932223000563681,11,False,5
11055,training_phase_1,2,5,55,materials/images/blueB4.png,Beta,Beta,True,1.4205399999627843,11,False,6
11055,training_phase_1,2,5,56,materials/images/blueB5.png,Beta,Beta,True,0.6789348999736831,11,False,7
11055,training_phase_1,2,5,57,materials/images/redA6.png,Alpha,Beta,False,0.7568727999459952,11,False,7
11055,training_phase_1,2,5,58,materials/images/redA2.png,Alpha,Beta,False,0.7819212001049891,11,False,7
11055,training_phase_1,2,5,59,materials/images/blueB3.png,Beta,Beta,True,0.5435769000323489,11,False,8
11055,training_phase_1,2,5,60,materials/images/blueB2.png,Beta,Beta,True,1.525727799977176,11,False,9
11055,training_phase_1,2,6,61,materials/images/blueB5.png,Beta,Beta,True,0.6036713999928907,11,False,1
11055,training_phase_1,2,6,62,materials/images/redA5.png,Alpha,Beta,False,3.6307074000360444,11,False,1
11055,training_phase_1,2,6,63,materials/images/blueB4.png,Beta,Beta,True,5.160870100022294,11,False,2
11055,training_phase_1,2,6,64,materials/images/blueB3.png,Beta,Beta,True,0.44782120001036674,11,False,3
11055,training_phase_1,2,6,65,materials/images/blueB1.png,Beta,Beta,True,0.2117075000423938,11,False,4
11055,training_phase_1,2,6,66,materials/images/redA4.png,Alpha,Beta,False,7.35949179995805,11,False,4
11055,training_phase_1,2,6,67,materials/images/redA6.png,Alpha,Beta,False,0.023594300029799342,11,False,4
11055,training_phase_1,2,6,68,materials/images/blueB6.png,Beta,Beta,True,0.02348930004518479,11,False,5
11055,training_phase_1,2,6,69,materials/images/blueB2.png,Beta,Beta,True,0.06556809996254742,11,False,6
11055,training_phase_1,2,6,70,materials/images/redA2.png,Alpha,Alpha,True,1.5128390000900254,11,False,7
11055,training_phase_1,2,6,71,materials/images/redA3.png,Alpha,Alpha,True,0.6680622999556363,11,False,8
11055,training_phase_1,2,6,72,materials/images/redA1.png,Alpha,Alpha,True,1.239116600016132,11,False,9
11055,training_phase_1,2,7,73,materials/images/blueB4.png,Beta,Beta,True,1.2214517999673262,11,False,1
11055,training_phase_1,2,7,74,materials/images/blueB5.png,Beta,Beta,True,0.24462909996509552,11,False,2
11055,training_phase_1,2,7,75,materials/images/redA6.png,Alpha,Beta,False,0.3555625999579206,11,False,2
11055,training_phase_1,2,7,76,materials/images/blueB2.png,Beta,Beta,True,0.9959234000416473,11,False,3
11055,training_phase_1,2,7,77,materials/images/blueB6.png,Beta,Beta,True,0.572510699974373,11,False,4
11055,training_phase_1,2,7,78,materials/images/redA3.png,Alpha,Alpha,True,4.594361299998127,11,False,5
11055,training_phase_1,2,7,79,materials/images/blueB3.png,Beta,Beta,True,0.33794780005700886,11,False,6
11055,training_phase_1,2,7,80,materials/images/redA5.png,Alpha,Beta,False,4.81763049995061,11,False,6
11055,training_phase_1,2,7,81,materials/images/redA4.png,Alpha,Alpha,True,1.5580030999844894,11,False,7
11055,training_phase_1,2,7,82,materials/images/blueB1.png,Beta,Beta,True,0.04399450006894767,11,False,8
11055,training_phase_1,2,7,83,materials/images/redA1.png,Alpha,Alpha,True,2.8636959000723436,11,False,9
11055,training_phase_1,2,7,84,materials/images/redA2.png,Alpha,Alpha,True,0.7054998999228701,11,False,10
11055,training_phase_1,2,8,85,materials/images/redA6.png,Alpha,Beta,False,3.317847599973902,11,False,0
11055,training_phase_1,2,8,86,materials/images/redA3.png,Alpha,Alpha,True,0.8831295999698341,11,False,1
11055,training_phase_1,2,8,87,materials/images/blueB3.png,Beta,Beta,True,0.05841899989172816,11,False,2
11055,training_phase_1,2,8,88,materials/images/blueB4.png,Beta,Beta,True,0.21445219998713583,11,False,3
11055,training_phase_1,2,8,89,materials/images/redA1.png,Alpha,Alpha,True,0.6218662000028417,11,False,4
11055,training_phase_1,2,8,90,materials/images/blueB1.png,Beta,Beta,True,1.1851239000679925,11,False,5
11055,training_phase_1,2,8,91,materials/images/redA4.png,Alpha,Alpha,True,4.423798199975863,11,False,6
11055,training_phase_1,2,8,92,materials/images/blueB2.png,Beta,Beta,True,4.114750399952754,11,False,7
11055,training_phase_1,2,8,93,materials/images/redA5.png,Alpha,Beta,False,4.723540199920535,11,False,7
11055,training_phase_1,2,8,94,materials/images/blueB6.png,Beta,Beta,True,1.333107199985534,11,False,8
11055,training_phase_1,2,8,95,materials/images/redA2.png,Alpha,Alpha,True,0.2838569999439642,11,False,9
11055,training_phase_1,2,8,96,materials/images/blueB5.png,Beta,Beta,True,0.3623940000543371,11,False,10
pnum,phase_id,condition,block_data,trial_num,stim,correct_category,response,hit,rt,criterian,met_criterian,num_correct_in_block
11055,test_phase,2,1,1,materials/images/redA6.png,Alpha,Alpha,gen,3.0122720999643207,1,True,1
11055,test_phase,2,1,2,materials/images/redA1.png,Alpha,Alpha,gen,0.33248089998960495,1,True,2
11055,test_phase,2,1,3,materials/images/blueB6.png,Beta,Beta,gen,1.127445499994792,1,True,3
11055,test_phase,2,1,4,materials/images/redA3.png,Alpha,Alpha,gen,0.7727846000343561,1,True,4
11055,test_phase,2,1,5,materials/images/yGen4.png,test,Beta,gen,0.1776512999786064,1,True,5
11055,test_phase,2,1,6,materials/images/yGen1.png,test,Beta,gen,3.04131540004164,1,True,6
11055,test_phase,2,1,7,materials/images/blueB4.png,Beta,Alpha,gen,1.2222758999560028,1,True,7
11055,test_phase,2,1,8,materials/images/redA5.png,Alpha,Beta,gen,0.01956889999564737,1,True,8
11055,test_phase,2,1,9,materials/images/yGen2.png,test,Alpha,gen,0.4910933000501245,1,True,9
11055,test_phase,2,1,10,materials/images/blueB1.png,Beta,Beta,gen,0.43938550003804266,1,True,10
11055,test_phase,2,1,11,materials/images/redA2.png,Alpha,Alpha,gen,0.7944781999103725,1,True,11
11055,test_phase,2,1,12,materials/images/blueB2.png,Beta,Beta,gen,0.21937199996318668,1,True,12
11055,test_phase,2,1,13,materials/images/blueB3.png,Beta,Beta,gen,0.019088599947281182,1,True,13
11055,test_phase,2,1,14,materials/images/yGen5.png,test,Beta,gen,0.019858399988152087,1,True,14
11055,test_phase,2,1,15,materials/images/yGen3.png,test,Beta,gen,0.023208300000987947,1,True,15
11055,test_phase,2,1,16,materials/images/redA4.png,Alpha,Alpha,gen,0.6122335999971256,1,True,16
11055,test_phase,2,1,17,materials/images/blueB5.png,Beta,Alpha,gen,3.501834199996665,1,True,17
pnum,phase_id,condition,block_data,trial_num,stim,correct_category,response,hit,rt,criterian,met_criterian,num_correct_in_block
11055,training_phase_2,2,1,1,materials/images/redA4.png,Alpha,Alpha,True,2.2128169999923557,30,False,1
11055,training_phase_2,2,1,2,materials/images/redA6.png,Alpha,Alpha,True,0.7191191000165418,30,False,2
11055,training_phase_2,2,1,3,materials/images/redA3.png,Alpha,Alpha,True,0.5273652999894693,30,False,3
11055,training_phase_2,2,1,4,materials/images/blueB4.png,Beta,Alpha,False,0.4347196000162512,30,False,3
11055,training_phase_2,2,1,5,materials/images/greenD5.png,Delta,Beta,False,0.025034799939021468,30,False,3
11055,training_phase_2,2,1,6,materials/images/blackG5.png,Gamma,Beta,False,0.8882981000933796,30,False,3
11055,training_phase_2,2,1,7,materials/images/redA2.png,Alpha,Alpha,True,0.3132439999608323,30,False,4
11055,training_phase_2,2,1,8,materials/images/blackG2.png,Gamma,Beta,False,0.3617705999640748,30,False,4
11055,training_phase_2,2,1,9,materials/images/blackG6.png,Gamma,Delta,False,3.0199024999747053,30,False,4
11055,training_phase_2,2,1,10,materials/images/blueB1.png,Beta,Beta,True,5.717263099970296,30,False,5
11055,training_phase_2,2,1,11,materials/images/blueB3.png,Beta,Beta,True,1.4003487000009045,30,False,6
11055,training_phase_2,2,1,12,materials/images/greenD6.png,Delta,Beta,False,1.734751099953428,30,False,6
11055,training_phase_2,2,1,13,materials/images/greenD2.png,Delta,Delta,True,0.03271939989645034,30,False,7
11055,training_phase_2,2,1,14,materials/images/redA5.png,Alpha,Gamma,False,0.5843730999622494,30,False,7
11055,training_phase_2,2,1,15,materials/images/greenD1.png,Delta,Delta,True,0.5858542000642046,30,False,8
11055,training_phase_2,2,1,16,materials/images/greenD3.png,Delta,Gamma,False,4.019769300008193,30,False,8
11055,training_phase_2,2,1,17,materials/images/blueB5.png,Beta,Gamma,False,1.1565576000139117,30,False,8
11055,training_phase_2,2,1,18,materials/images/redA1.png,Alpha,Alpha,True,0.060181699926033616,30,False,9
11055,training_phase_2,2,1,19,materials/images/blueB2.png,Beta,Beta,True,1.8859570999629796,30,False,10
11055,training_phase_2,2,1,20,materials/images/blackG1.png,Gamma,Gamma,True,1.4968166999751702,30,False,11
11055,training_phase_2,2,1,21,materials/images/greenD4.png,Delta,Gamma,False,10.716324499924667,30,False,11
11055,training_phase_2,2,1,22,materials/images/blueB6.png,Beta,Delta,False,0.22203459998127073,30,False,11
11055,training_phase_2,2,1,23,materials/images/blackG3.png,Gamma,Gamma,True,1.0152917000232264,30,False,12
11055,training_phase_2,2,1,24,materials/images/blackG4.png,Gamma,Beta,False,4.411076400079764,30,False,12
11055,training_phase_2,2,2,25,materials/images/blueB3.png,Beta,Delta,False,0.27417530003003776,30,False,0
11055,training_phase_2,2,2,26,materials/images/blueB2.png,Beta,Gamma,False,0.8680849999655038,30,False,0
11055,training_phase_2,2,2,27,materials/images/redA6.png,Alpha,Alpha,True,6.153415899956599,30,False,1
11055,training_phase_2,2,2,28,materials/images/greenD3.png,Delta,Beta,False,5.187375399982557,30,False,1
11055,training_phase_2,2,2,29,materials/images/greenD4.png,Delta,Delta,True,0.1792250000871718,30,False,2
11055,training_phase_2,2,2,30,materials/images/blueB1.png,Beta,Beta,True,2.4032632000744343,30,False,3
11055,training_phase_2,2,2,31,materials/images/redA4.png,Alpha,Gamma,False,2.8492054999805987,30,False,3
11055,training_phase_2,2,2,32,materials/images/blackG2.png,Gamma,Beta,False,3.355121299973689,30,False,3
11055,training_phase_2,2,2,33,materials/images/redA2.png,Alpha,Beta,False,1.4760438000084832,30,False,3
11055,training_phase_2,2,2,34,materials/images/blackG6.png,Gamma,Delta,False,1.8046954999445006,30,False,3
11055,training_phase_2,2,2,35,materials/images/redA5.png,Alpha,Gamma,False,0.27588099997956306,30,False,3
11055,training_phase_2,2,2,36,materials/images/blackG4.png,Gamma,Gamma,True,0.5313315999228507,30,False,4
11055,training_phase_2,2,2,37,materials/images/blueB5.png,Beta,Gamma,False,0.5834107999689877,30,False,4
11055,training_phase_2,2,2,38,materials/images/blackG3.png,Gamma,Beta,False,20.60409330006223,30,False,4
11055,training_phase_2,2,2,39,materials/images/blackG1.png,Gamma,Beta,False,1.4135830999584869,30,False,4
11055,training_phase_2,2,2,40,materials/images/redA3.png,Alpha,Alpha,True,1.7930151999462396,30,False,5
11055,training_phase_2,2,2,41,materials/images/blackG5.png,Gamma,Gamma,True,2.780391199979931,30,False,6
11055,training_phase_2,2,2,42,materials/images/greenD6.png,Delta,Delta,True,1.0843565999530256,30,False,7
11055,training_phase_2,2,2,43,materials/images/blueB4.png,Beta,Beta,True,9.613894600071944,30,False,8
11055,training_phase_2,2,2,44,materials/images/greenD5.png,Delta,Delta,True,2.4209764999104664,30,False,9
11055,training_phase_2,2,2,45,materials/images/greenD2.png,Delta,Gamma,False,1.5903286999091506,30,False,9
11055,training_phase_2,2,2,46,materials/images/greenD1.png,Delta,Delta,True,0.6415291000157595,30,False,10
11055,training_phase_2,2,2,47,materials/images/blueB6.png,Beta,Gamma,False,0.4095454999478534,30,False,10
11055,training_phase_2,2,2,48,materials/images/redA1.png,Alpha,Alpha,True,0.16856319992803037,30,False,11
