pnum,phase_id,condition,block_data,trial_num,stim,correct_category,response,hit,rt,criterian,met_criterian,num_correct_in_block
11061,training_phase_1,2,1,1,materials/images/blueB4.png,Beta,Alpha,False,2.548488999949768,11,False,0
11061,training_phase_1,2,1,2,materials/images/redA1.png,Alpha,Alpha,True,2.509333400055766,11,False,1
11061,training_phase_1,2,1,3,materials/images/blueB6.png,Beta,Beta,True,1.3019868999253958,11,False,2
11061,training_phase_1,2,1,4,materials/images/blueB5.png,Beta,Beta,True,0.6146863999310881,11,False,3
11061,training_phase_1,2,1,5,materials/images/blueB1.png,Beta,Alpha,False,2.4410227000480518,11,False,3
11061,training_phase_1,2,1,6,materials/images/redA3.png,Alpha,Alpha,True,2.0776948999846354,11,False,4
11061,training_phase_1,2,1,7,materials/images/redA4.png,Alpha,Beta,False,0.8827654999913648,11,False,4
11061,training_phase_1,2,1,8,materials/images/blueB2.png,Beta,Beta,True,3.624651800026186,11,False,5
11061,training_phase_1,2,1,9,materials/images/redA6.png,Alpha,Beta,False,0.5098950000246987,11,False,5
11061,training_phase_1,2,1,10,materials/images/redA5.png,Alpha,Beta,False,0.24523729993961751,11,False,5
11061,training_phase_1,2,1,11,materials/images/redA2.png,Alpha,Alpha,True,0.5154941999353468,11,False,6
11061,training_phase_1,2,1,12,materials/images/blueB3.png,Beta,Beta,True,21.32733549992554,11,False,7
11061,training_phase_1,2,2,13,materials/images/blueB2.png,Beta,Alpha,False,10.372260400094092,11,False,0
11061,training_phase_1,2,2,14,materials/images/blueB6.png,Beta,Alpha,False,1.8883537999354303,11,False,0
11061,training_phase_1,2,2,15,materials/images/blueB1.png,Beta,Alpha,False,0.4087594000156969,11,False,0
11061,training_phase_1,2,2,16,materials/images/redA1.png,Alpha,Beta,False,0.042090100003406405,11,False,0
11061,training_phase_1,2,2,17,materials/images/redA6.png,Alpha,Beta,False,0.8461689999094233,11,False,0
11061,training_phase_1,2,2,18,materials/images/redA2.png,Alpha,Alpha,True,0.3087164999451488,11,False,1
11061,training_phase_1,2,2,19,materials/images/blueB5.png,Beta,Beta,True,1.2506970000686124,11,False,2
11061,training_phase_1,2,2,20,materials/images/redA5.png,Alpha,Alpha,True,0.505794299999252,11,False,3
11061,training_phase_1,2,2,21,materials/images/blueB4.png,Beta,Beta,True,0.6986018000170588,11,False,4
11061,training_phase_1,2,2,22,materials/images/blueB3.png,Beta,Alpha,False,26.8623857999919,11,False,4
11061,training_phase_1,2,2,23,materials/images/redA4.png,Alpha,Beta,False,2.9220101999817416,11,False,4
11061,training_phase_1,2,2,24,materials/images/redA3.png,Alpha,Alpha,True,1.0099157999502495,11,False,5
11061,training_phase_1,2,3,25,materials/images/redA4.png,Alpha,Beta,False,5.497469700057991,11,False,0
11061,training_phase_1,2,3,26,materials/images/blueB5.png,Beta,Beta,True,1.9240319000091404,11,False,1
11061,training_phase_1,2,3,27,materials/images/blueB1.png,Beta,Alpha,False,1.222261399962008,11,False,1
11061,training_phase_1,2,3,28,materials/images/blueB3.png,Beta,Beta,True,1.7792545999400318,11,False,2
11061,training_phase_1,2,3,29,materials/images/redA6.png,Alpha,Beta,False,1.9300927999429405,11,False,2
11061,training_phase_1,2,3,30,materials/images/redA3.png,Alpha,Alpha,True,0.6732446999521926,11,False,3
11061,training_phase_1,2,3,31,materials/images/redA5.png,Alpha,Beta,False,0.2789440000196919,11,False,3
11061,training_phase_1,2,3,32,materials/images/redA2.png,Alpha,Alpha,True,0.19263849989511073,11,False,4
11061,training_phase_1,2,3,33,materials/images/blueB4.png,Beta,Beta,True,0.8791511999443173,11,False,5
11061,training_phase_1,2,3,34,materials/images/redA1.png,Alpha,Alpha,True,0.2001575999893248,11,False,6
11061,training_phase_1,2,3,35,materials/images/blueB6.png,Beta,Alpha,False,1.5752416000468656,11,False,6
11061,training_phase_1,2,3,36,materials/images/blueB2.png,Beta,Alpha,False,2.273035299964249,11,False,6
11061,training_phase_1,2,4,37,materials/images/blueB6.png,Beta,Alpha,False,2.8568656999850646,11,False,0
11061,training_phase_1,2,4,38,materials/images/redA5.png,Alpha,Beta,False,0.4103297999827191,11,False,0
11061,training_phase_1,2,4,39,materials/images/redA4.png,Alpha,Alpha,True,1.1807527999626473,11,False,1
11061,training_phase_1,2,4,40,materials/images/redA2.png,Alpha,Alpha,True,5.205376800033264,11,False,2
11061,training_phase_1,2,4,41,materials/images/redA1.png,Alpha,Alpha,True,0.4884707999881357,11,False,3
11061,training_phase_1,2,4,42,materials/images/blueB4.png,Beta,Beta,True,0.06803569989278913,11,False,4
11061,training_phase_1,2,4,43,materials/images/redA3.png,Alpha,Beta,False,1.5442950999131426,11,False,4
11061,training_phase_1,2,4,44,materials/images/blueB2.png,Beta,Alpha,False,0.7876680999761447,11,False,4
11061,training_phase_1,2,4,45,materials/images/redA6.png,Alpha,Beta,False,1.8693333000410348,11,False,4
11061,training_phase_1,2,4,46,materials/images/blueB3.png,Beta,Beta,True,6.542330800089985,11,False,5
11061,training_phase_1,2,4,47,materials/images/blueB1.png,Beta,Alpha,False,0.3146327000577003,11,False,5
11061,training_phase_1,2,4,48,materials/images/blueB5.png,Beta,Beta,True,0.04497349995654076,11,False,6
11061,training_phase_1,2,5,49,materials/images/blueB1.png,Beta,Alpha,False,0.14064920006785542,11,False,0
11061,training_phase_1,2,5,50,materials/images/redA5.png,Alpha,Alpha,True,1.7343216000590473,11,False,1
11061,training_phase_1,2,5,51,materials/images/blueB6.png,Beta,Beta,True,3.1559540999587625,11,False,2
11061,training_phase_1,2,5,52,materials/images/blueB2.png,Beta,Alpha,False,1.9058665999909863,11,False,2
11061,training_phase_1,2,5,53,materials/images/redA3.png,Alpha,Alpha,True,0.2000712000299245,11,False,3
11061,training_phase_1,2,5,54,materials/images/blueB4.png,Beta,Beta,True,1.2875832000281662,11,False,4
11061,training_phase_1,2,5,55,materials/images/blueB3.png,Beta,Beta,True,0.7121445999946445,11,False,5
11061,training_phase_1,2,5,56,materials/images/blueB5.png,Beta,Beta,True,1.034102600067854,11,False,6
11061,training_phase_1,2,5,57,materials/images/redA6.png,Alpha,Beta,False,0.5766638000495732,11,False,6
11061,training_phase_1,2,5,58,materials/images/redA2.png,Alpha,Alpha,True,0.1026376000372693,11,False,7
11061,training_phase_1,2,5,59,materials/images/redA1.png,Alpha,Alpha,True,0.10589260002598166,11,False,8
11061,training_phase_1,2,5,60,materials/images/redA4.png,Alpha,Beta,False,4.924750900012441,11,False,8
11061,training_phase_1,2,6,61,materials/images/redA5.png,Alpha,Beta,False,0.19563299999572337,11,False,0
11061,training_phase_1,2,6,62,materials/images/blueB4.png,Beta,Beta,True,1.4615236000390723,11,False,1
11061,training_phase_1,2,6,63,materials/images/blueB5.png,Beta,Beta,True,0.09646929998416454,11,False,2
11061,training_phase_1,2,6,64,materials/images/redA6.png,Alpha,Beta,False,0.019707400002516806,11,False,2
11061,training_phase_1,2,6,65,materials/images/redA4.png,Alpha,Alpha,True,1.6374455000041053,11,False,3
11061,training_phase_1,2,6,66,materials/images/blueB6.png,Beta,Alpha,False,0.5863166999770328,11,False,3
11061,training_phase_1,2,6,67,materials/images/redA2.png,Alpha,Alpha,True,2.5394313000142574,11,False,4
11061,training_phase_1,2,6,68,materials/images/redA3.png,Alpha,Alpha,True,5.586153700016439,11,False,5
11061,training_phase_1,2,6,69,materials/images/blueB1.png,Beta,Alpha,False,0.4550603999523446,11,False,5
11061,training_phase_1,2,6,70,materials/images/blueB2.png,Beta,Alpha,False,21.755909399944358,11,False,5
11061,training_phase_1,2,6,71,materials/images/redA1.png,Alpha,Alpha,True,0.14104630006477237,11,False,6
11061,training_phase_1,2,6,72,materials/images/blueB3.png,Beta,Beta,True,0.7418066000100225,11,False,7
11061,training_phase_1,2,7,73,materials/images/redA4.png,Alpha,Beta,False,0.32169709994923323,11,False,0
11061,training_phase_1,2,7,74,materials/images/redA1.png,Alpha,Alpha,True,2.2509147999808192,11,False,1
11061,training_phase_1,2,7,75,materials/images/redA2.png,Alpha,Alpha,True,0.07426449994090945,11,False,2
11061,training_phase_1,2,7,76,materials/images/blueB3.png,Beta,Beta,True,1.515757399960421,11,False,3
11061,training_phase_1,2,7,77,materials/images/blueB5.png,Beta,Beta,True,0.14114189997781068,11,False,4
11061,training_phase_1,2,7,78,materials/images/redA6.png,Alpha,Beta,False,1.8372107000323012,11,False,4
11061,training_phase_1,2,7,79,materials/images/redA5.png,Alpha,Alpha,True,0.49024690000806004,11,False,5
11061,training_phase_1,2,7,80,materials/images/blueB1.png,Beta,Alpha,False,2.371712199994363,11,False,5
11061,training_phase_1,2,7,81,materials/images/redA3.png,Alpha,Beta,False,9.07340120000299,11,False,5
11061,training_phase_1,2,7,82,materials/images/blueB2.png,Beta,Beta,True,20.325451500015333,11,False,6
11061,training_phase_1,2,7,83,materials/images/blueB4.png,Beta,Beta,True,6.471248000045307,11,False,7
11061,training_phase_1,2,7,84,materials/images/blueB6.png,Beta,Beta,True,0.3394430000334978,11,False,8
11061,training_phase_1,2,8,85,materials/images/blueB3.png,Beta,Alpha,False,0.9553402999881655,11,False,0
11061,training_phase_1,2,8,86,materials/images/redA4.png,Alpha,Beta,False,5.137908900040202,11,False,0
11061,training_phase_1,2,8,87,materials/images/blueB1.png,Beta,Alpha,False,0.04986799997277558,11,False,0
11061,training_phase_1,2,8,88,materials/images/blueB6.png,Beta,Beta,True,0.019360399921424687,11,False,1
11061,training_phase_1,2,8,89,materials/images/blueB4.png,Beta,Beta,True,2.7394535000203177,11,False,2
11061,training_phase_1,2,8,90,materials/images/redA3.png,Alpha,Alpha,True,0.16601219994481653,11,False,3
11061,training_phase_1,2,8,91,materials/images/redA5.png,Alpha,Beta,False,9.813753599999472,11,False,3
11061,training_phase_1,2,8,92,materials/images/redA6.png,Alpha,Beta,False,0.5407704999670386,11,False,3
11061,training_phase_1,2,8,93,materials/images/blueB5.png,Beta,Beta,True,2.0477117999689654,11,False,4
11061,training_phase_1,2,8,94,materials/images/redA1.png,Alpha,Alpha,True,6.17838290007785,11,False,5
11061,training_phase_1,2,8,95,materials/images/redA2.png,Alpha,Alpha,True,1.3342532999813557,11,False,6
11061,training_phase_1,2,8,96,materials/images/blueB2.png,Beta,Beta,True,1.2538817999884486,11,False,7
pnum,phase_id,condition,block_data,trial_num,stim,correct_category,response,hit,rt,criterian,met_criterian,num_correct_in_block
11061,test_phase,2,1,1,materials/images/redA6.png,Alpha,Beta,gen,2.685649999999441,1,True,1
11061,test_phase,2,1,2,materials/images/yGen1.png,test,Alpha,gen,1.5275332999881357,1,True,2
11061,test_phase,2,1,3,materials/images/redA4.png,Alpha,Beta,gen,0.43985379999503493,1,True,3
11061,test_phase,2,1,4,materials/images/blueB3.png,Beta,Beta,gen,3.031726000015624,1,True,4
11061,test_phase,2,1,5,materials/images/redA5.png,Alpha,Beta,gen,2.125175500055775,1,True,5
11061,test_phase,2,1,6,materials/images/redA2.png,Alpha,Alpha,gen,0.4017413000110537,1,True,6
11061,test_phase,2,1,7,materials/images/yGen3.png,test,Beta,gen,0.019243799964897335,1,True,7
11061,test_phase,2,1,8,materials/images/redA1.png,Alpha,Alpha,gen,0.15290700003970414,1,True,8
11061,test_phase,2,1,9,materials/images/blueB5.png,Beta,Beta,gen,0.36323470005299896,1,True,9
11061,test_phase,2,1,10,materials/images/blueB6.png,Beta,Beta,gen,0.47053500008769333,1,True,10
11061,test_phase,2,1,11,materials/images/yGen4.png,test,Beta,gen,0.14336630003526807,1,True,11
11061,test_phase,2,1,12,materials/images/redA3.png,Alpha,Alpha,gen,0.033879299997352064,1,True,12
11061,test_phase,2,1,13,materials/images/yGen5.png,test,Beta,gen,0.8171157999895513,1,True,13
11061,test_phase,2,1,14,materials/images/blueB4.png,Beta,Beta,gen,1.1437177000334486,1,True,14
11061,test_phase,2,1,15,materials/images/blueB2.png,Beta,Alpha,gen,3.201018700026907,1,True,15
11061,test_phase,2,1,16,materials/images/yGen2.png,test,Alpha,gen,13.85950630006846,1,True,16
11061,test_phase,2,1,17,materials/images/blueB1.png,Beta,Beta,gen,1.2644901000894606,1,True,17
pnum,phase_id,condition,block_data,trial_num,stim,correct_category,response,hit,rt,criterian,met_criterian,num_correct_in_block
11061,training_phase_2,2,1,1,materials/images/greenD5.png,Delta,Beta,False,2.4805068999994546,30,False,0
11061,training_phase_2,2,1,2,materials/images/redA2.png,Alpha,Alpha,True,0.36256569996476173,30,False,1
11061,training_phase_2,2,1,3,materials/images/blackG5.png,Gamma,Gamma,True,0.23156870005186647,30,False,2
11061,training_phase_2,2,1,4,materials/images/blueB4.png,Beta,Delta,False,0.35849879996385425,30,False,2
11061,training_phase_2,2,1,5,materials/images/blueB3.png,Beta,Beta,True,1.4969594998983666,30,False,3
11061,training_phase_2,2,1,6,materials/images/blackG1.png,Gamma,Alpha,False,0.5046594999730587,30,False,3
11061,training_phase_2,2,1,7,materials/images/redA5.png,Alpha,Gamma,False,0.9461663999827579,30,False,3
11061,training_phase_2,2,1,8,materials/images/greenD6.png,Delta,Beta,False,17.830171899986453,30,False,3
11061,training_phase_2,2,1,9,materials/images/greenD2.png,Delta,Gamma,False,0.27818999998271465,30,False,3
11061,training_phase_2,2,1,10,materials/images/blueB1.png,Beta,Alpha,False,0.10903809999581426,30,False,3
11061,training_phase_2,2,1,11,materials/images/redA6.png,Alpha,Beta,False,11.157965100021102,30,False,3
11061,training_phase_2,2,1,12,materials/images/greenD3.png,Delta,Delta,True,1.323711600038223,30,False,4
11061,training_phase_2,2,1,13,materials/images/blackG3.png,Gamma,Alpha,False,1.0863747000694275,30,False,4
11061,training_phase_2,2,1,14,materials/images/greenD1.png,Delta,Beta,False,19.21675070002675,30,False,4
11061,training_phase_2,2,1,15,materials/images/blackG6.png,Gamma,Beta,False,32.678664200007915,30,False,4
11061,training_phase_2,2,1,16,materials/images/blueB6.png,Beta,Delta,False,1.2969211000017822,30,False,4
11061,training_phase_2,2,1,17,materials/images/redA3.png,Alpha,Alpha,True,0.1844843999715522,30,False,5
11061,training_phase_2,2,1,18,materials/images/greenD4.png,Delta,Gamma,False,6.308753399993293,30,False,5
11061,training_phase_2,2,1,19,materials/images/blueB5.png,Beta,Delta,False,1.9485520999878645,30,False,5
11061,training_phase_2,2,1,20,materials/images/redA4.png,Alpha,Alpha,True,0.4341973999980837,30,False,6
11061,training_phase_2,2,1,21,materials/images/blueB2.png,Beta,Delta,False,0.8819330000551417,30,False,6
11061,training_phase_2,2,1,22,materials/images/redA1.png,Alpha,Alpha,True,0.3314253999851644,30,False,7
11061,training_phase_2,2,1,23,materials/images/blackG4.png,Gamma,Gamma,True,0.9995176999364048,30,False,8
11061,training_phase_2,2,1,24,materials/images/blackG2.png,Gamma,Alpha,False,0.4822516000131145,30,False,8
11061,training_phase_2,2,2,25,materials/images/blueB3.png,Beta,Beta,True,9.798376100021414,30,False,1
11061,training_phase_2,2,2,26,materials/images/blackG3.png,Gamma,Delta,False,1.909264300018549,30,False,1
11061,training_phase_2,2,2,27,materials/images/redA1.png,Alpha,Alpha,True,2.0997796000447124,30,False,2
11061,training_phase_2,2,2,28,materials/images/redA4.png,Alpha,Gamma,False,0.12350980006158352,30,False,2
11061,training_phase_2,2,2,29,materials/images/greenD6.png,Delta,Delta,True,9.142749899998307,30,False,3
11061,training_phase_2,2,2,30,materials/images/redA3.png,Alpha,Alpha,True,1.1980013999855146,30,False,4
11061,training_phase_2,2,2,31,materials/images/blueB6.png,Beta,Gamma,False,0.0763737999368459,30,False,4
11061,training_phase_2,2,2,32,materials/images/blackG5.png,Gamma,Delta,False,1.59040740004275,30,False,4
11061,training_phase_2,2,2,33,materials/images/blackG2.png,Gamma,Alpha,False,5.079970499966294,30,False,4
11061,training_phase_2,2,2,34,materials/images/blackG6.png,Gamma,Beta,False,4.605707000009716,30,False,4
11061,training_phase_2,2,2,35,materials/images/blueB4.png,Beta,Gamma,False,10.564390799961984,30,False,4
11061,training_phase_2,2,2,36,materials/images/greenD3.png,Delta,Alpha,False,2.1132306000217795,30,False,4
11061,training_phase_2,2,2,37,materials/images/redA6.png,Alpha,Alpha,True,0.5202972000697628,30,False,5
11061,training_phase_2,2,2,38,materials/images/blackG4.png,Gamma,Beta,False,0.024583199992775917,30,False,5
11061,training_phase_2,2,2,39,materials/images/greenD4.png,Delta,Delta,True,0.7589465000201017,30,False,6
11061,training_phase_2,2,2,40,materials/images/greenD1.png,Delta,Gamma,False,0.510468199965544,30,False,6
11061,training_phase_2,2,2,41,materials/images/greenD5.png,Delta,Delta,True,2.3791851999703795,30,False,7
11061,training_phase_2,2,2,42,materials/images/blueB2.png,Beta,Alpha,False,0.5515422000316903,30,False,7
11061,training_phase_2,2,2,43,materials/images/redA2.png,Alpha,Alpha,True,0.9400446000508964,30,False,8
11061,training_phase_2,2,2,44,materials/images/blueB1.png,Beta,Gamma,False,0.5393652999773622,30,False,8
11061,training_phase_2,2,2,45,materials/images/greenD2.png,Delta,Delta,True,0.6263249000767246,30,False,9
11061,training_phase_2,2,2,46,materials/images/blackG1.png,Gamma,Alpha,False,0.9053654000163078,30,False,9
11061,training_phase_2,2,2,47,materials/images/blueB5.png,Beta,Gamma,False,0.45034850004594773,30,False,9
11061,training_phase_2,2,2,48,materials/images/redA5.png,Alpha,Delta,False,8.29189240001142,30,False,9
