pnum,phase_id,condition,block_data,trial_num,stim,correct_category,response,hit,rt,criterian,met_criterian,num_correct_in_block
11069,training_phase_1,2,1,1,materials/images/redA3.png,Alpha,Beta,False,3.7375667999731377,11,False,0
11069,training_phase_1,2,1,2,materials/images/redA2.png,Alpha,Alpha,True,1.0664126999909058,11,False,1
11069,training_phase_1,2,1,3,materials/images/blueB1.png,Beta,Alpha,False,0.8839804999297485,11,False,1
11069,training_phase_1,2,1,4,materials/images/redA5.png,Alpha,Alpha,True,0.7241643999004737,11,False,2
11069,training_phase_1,2,1,5,materials/images/blueB6.png,Beta,Alpha,False,1.5816759000299498,11,False,2
11069,training_phase_1,2,1,6,materials/images/redA4.png,Alpha,Alpha,True,0.6336834999965504,11,False,3
11069,training_phase_1,2,1,7,materials/images/blueB3.png,Beta,Beta,True,0.31909740006085485,11,False,4
11069,training_phase_1,2,1,8,materials/images/blueB4.png,Beta,Alpha,False,0.1839822999900207,11,False,4
11069,training_phase_1,2,1,9,materials/images/redA6.png,Alpha,Beta,False,0.49299219995737076,11,False,4
11069,training_phase_1,2,1,10,materials/images/blueB2.png,Beta,Beta,True,0.5980431999778375,11,False,5
11069,training_phase_1,2,1,11,materials/images/blueB5.png,Beta,Beta,True,0.4098392999731004,11,False,6
11069,training_phase_1,2,1,12,materials/images/redA1.png,Alpha,Alpha,True,0.35855669993907213,11,False,7
11069,training_phase_1,2,2,13,materials/images/blueB2.png,Beta,Beta,True,0.06447240000125021,11,False,1
11069,training_phase_1,2,2,14,materials/images/redA3.png,Alpha,Alpha,True,0.5302289999090135,11,False,2
11069,training_phase_1,2,2,15,materials/images/redA1.png,Alpha,Alpha,True,0.1972161999437958,11,False,3
11069,training_phase_1,2,2,16,materials/images/redA5.png,Alpha,Beta,False,0.990339000010863,11,False,3
11069,training_phase_1,2,2,17,materials/images/blueB6.png,Beta,Beta,True,0.1798364999704063,11,False,4
11069,training_phase_1,2,2,18,materials/images/redA4.png,Alpha,Alpha,True,0.41233860002830625,11,False,5
11069,training_phase_1,2,2,19,materials/images/blueB1.png,Beta,Beta,True,0.18971769989002496,11,False,6
11069,training_phase_1,2,2,20,materials/images/blueB5.png,Beta,Alpha,False,0.832482700003311,11,False,6
11069,training_phase_1,2,2,21,materials/images/blueB4.png,Beta,Alpha,False,0.20194810000248253,11,False,6
11069,training_phase_1,2,2,22,materials/images/redA2.png,Alpha,Alpha,True,0.42189660004805773,11,False,7
11069,training_phase_1,2,2,23,materials/images/blueB3.png,Beta,Beta,True,0.3451517999637872,11,False,8
11069,training_phase_1,2,2,24,materials/images/redA6.png,Alpha,Alpha,True,1.6565234999870881,11,False,9
11069,training_phase_1,2,3,25,materials/images/blueB1.png,Beta,Beta,True,0.12464110006112605,11,False,1
11069,training_phase_1,2,3,26,materials/images/redA2.png,Alpha,Alpha,True,0.025726799969561398,11,False,2
11069,training_phase_1,2,3,27,materials/images/blueB6.png,Beta,Beta,True,0.01898240006994456,11,False,3
11069,training_phase_1,2,3,28,materials/images/redA4.png,Alpha,Alpha,True,1.20213380001951,11,False,4
11069,training_phase_1,2,3,29,materials/images/blueB3.png,Beta,Beta,True,0.36061079998034984,11,False,5
11069,training_phase_1,2,3,30,materials/images/blueB4.png,Beta,Alpha,False,1.29637990007177,11,False,5
11069,training_phase_1,2,3,31,materials/images/redA3.png,Alpha,Alpha,True,0.1992910000262782,11,False,6
11069,training_phase_1,2,3,32,materials/images/blueB5.png,Beta,Beta,True,0.9888282000320032,11,False,7
11069,training_phase_1,2,3,33,materials/images/redA6.png,Alpha,Beta,False,0.35894780000671744,11,False,7
11069,training_phase_1,2,3,34,materials/images/redA1.png,Alpha,Alpha,True,0.2936520999064669,11,False,8
11069,training_phase_1,2,3,35,materials/images/blueB2.png,Beta,Beta,True,0.4437440000474453,11,False,9
11069,training_phase_1,2,3,36,materials/images/redA5.png,Alpha,Beta,False,1.2398960000136867,11,False,9
11069,training_phase_1,2,4,37,materials/images/redA6.png,Alpha,Beta,False,0.3086554000619799,11,False,0
11069,training_phase_1,2,4,38,materials/images/redA2.png,Alpha,Alpha,True,0.3385143999475986,11,False,1
11069,training_phase_1,2,4,39,materials/images/redA3.png,Alpha,Alpha,True,0.7543763000285253,11,False,2
11069,training_phase_1,2,4,40,materials/images/blueB4.png,Beta,Beta,True,2.2811123999999836,11,False,3
11069,training_phase_1,2,4,41,materials/images/redA1.png,Alpha,Alpha,True,0.1637510999571532,11,False,4
11069,training_phase_1,2,4,42,materials/images/blueB1.png,Beta,Beta,True,0.5751159000210464,11,False,5
11069,training_phase_1,2,4,43,materials/images/blueB6.png,Beta,Beta,True,1.3097083999309689,11,False,6
11069,training_phase_1,2,4,44,materials/images/redA4.png,Alpha,Alpha,True,0.8564343999605626,11,False,7
11069,training_phase_1,2,4,45,materials/images/blueB3.png,Beta,Beta,True,0.43134670006111264,11,False,8
11069,training_phase_1,2,4,46,materials/images/blueB5.png,Beta,Beta,True,1.0521690000314265,11,False,9
11069,training_phase_1,2,4,47,materials/images/blueB2.png,Beta,Beta,True,0.5554643999785185,11,False,10
11069,training_phase_1,2,4,48,materials/images/redA5.png,Alpha,Alpha,True,1.7449830999830738,11,True,11
pnum,phase_id,condition,block_data,trial_num,stim,correct_category,response,hit,rt,criterian,met_criterian,num_correct_in_block
11069,test_phase,2,1,1,materials/images/blueB1.png,Beta,Beta,gen,0.043771700002253056,1,True,1
11069,test_phase,2,1,2,materials/images/yGen2.png,test,Beta,gen,0.6569212999893352,1,True,2
11069,test_phase,2,1,3,materials/images/blueB4.png,Beta,Beta,gen,2.2514893000479788,1,True,3
11069,test_phase,2,1,4,materials/images/redA6.png,Alpha,Alpha,gen,0.47370760003104806,1,True,4
11069,test_phase,2,1,5,materials/images/yGen5.png,test,Beta,gen,0.306013899971731,1,True,5
11069,test_phase,2,1,6,materials/images/blueB5.png,Beta,Beta,gen,1.7740608000895008,1,True,6
11069,test_phase,2,1,7,materials/images/blueB2.png,Beta,Beta,gen,0.17991910001728684,1,True,7
11069,test_phase,2,1,8,materials/images/blueB6.png,Beta,Beta,gen,1.0994865000247955,1,True,8
11069,test_phase,2,1,9,materials/images/redA4.png,Alpha,Alpha,gen,0.24045859999023378,1,True,9
11069,test_phase,2,1,10,materials/images/redA1.png,Alpha,Alpha,gen,0.02298890007659793,1,True,10
11069,test_phase,2,1,11,materials/images/redA3.png,Alpha,Alpha,gen,1.632385400007479,1,True,11
11069,test_phase,2,1,12,materials/images/redA2.png,Alpha,Alpha,gen,0.1441186999436468,1,True,12
11069,test_phase,2,1,13,materials/images/yGen4.png,test,Beta,gen,0.29190479998942465,1,True,13
11069,test_phase,2,1,14,materials/images/yGen3.png,test,Beta,gen,5.462001699954271,1,True,14
11069,test_phase,2,1,15,materials/images/blueB3.png,Beta,Beta,gen,0.2394565000431612,1,True,15
11069,test_phase,2,1,16,materials/images/yGen1.png,test,Alpha,gen,0.6530338000738993,1,True,16
11069,test_phase,2,1,17,materials/images/redA5.png,Alpha,Alpha,gen,0.7839246999938041,1,True,17
pnum,phase_id,condition,block_data,trial_num,stim,correct_category,response,hit,rt,criterian,met_criterian,num_correct_in_block
11069,training_phase_2,2,1,1,materials/images/greenD3.png,Delta,Beta,False,0.05271990003529936,30,False,0
11069,training_phase_2,2,1,2,materials/images/greenD5.png,Delta,Beta,False,0.37555180001072586,30,False,0
11069,training_phase_2,2,1,3,materials/images/redA4.png,Alpha,Beta,False,0.7919278999324888,30,False,0
11069,training_phase_2,2,1,4,materials/images/redA1.png,Alpha,Alpha,True,0.5625599999912083,30,False,1
11069,training_phase_2,2,1,5,materials/images/blueB2.png,Beta,Beta,True,0.2744595999829471,30,False,2
11069,training_phase_2,2,1,6,materials/images/blackG6.png,Gamma,Gamma,True,1.3659972000168636,30,False,3
11069,training_phase_2,2,1,7,materials/images/blueB3.png,Beta,Beta,True,0.8456216999329627,30,False,4
11069,training_phase_2,2,1,8,materials/images/blackG5.png,Gamma,Gamma,True,0.7367333000293002,30,False,5
11069,training_phase_2,2,1,9,materials/images/blackG2.png,Gamma,Beta,False,0.6023832999635488,30,False,5
11069,training_phase_2,2,1,10,materials/images/redA3.png,Alpha,Alpha,True,0.3793155000312254,30,False,6
11069,training_phase_2,2,1,11,materials/images/blueB6.png,Beta,Gamma,False,0.21435580006800592,30,False,6
11069,training_phase_2,2,1,12,materials/images/blueB1.png,Beta,Delta,False,1.6377527000149712,30,False,6
11069,training_phase_2,2,1,13,materials/images/greenD6.png,Delta,Gamma,False,0.5927235999843106,30,False,6
11069,training_phase_2,2,1,14,materials/images/redA2.png,Alpha,Alpha,True,0.1601952000055462,30,False,7
11069,training_phase_2,2,1,15,materials/images/blackG1.png,Gamma,Beta,False,0.2939380999887362,30,False,7
11069,training_phase_2,2,1,16,materials/images/redA5.png,Alpha,Alpha,True,0.9024903998943046,30,False,8
11069,training_phase_2,2,1,17,materials/images/redA6.png,Alpha,Gamma,False,0.21748649992514402,30,False,8
11069,training_phase_2,2,1,18,materials/images/blackG4.png,Gamma,Beta,False,1.0117100999923423,30,False,8
11069,training_phase_2,2,1,19,materials/images/blueB4.png,Beta,Alpha,False,1.3697778000496328,30,False,8
11069,training_phase_2,2,1,20,materials/images/blueB5.png,Beta,Gamma,False,0.2084825000492856,30,False,8
11069,training_phase_2,2,1,21,materials/images/blackG3.png,Gamma,Beta,False,0.17450470000039786,30,False,8
11069,training_phase_2,2,1,22,materials/images/greenD4.png,Delta,Beta,False,0.018354700063355267,30,False,8
11069,training_phase_2,2,1,23,materials/images/greenD1.png,Delta,Delta,True,0.6554505999665707,30,False,9
11069,training_phase_2,2,1,24,materials/images/greenD2.png,Delta,Beta,False,0.5795701000606641,30,False,9
11069,training_phase_2,2,2,25,materials/images/blueB6.png,Beta,Gamma,False,0.23341139999683946,30,False,0
11069,training_phase_2,2,2,26,materials/images/redA6.png,Alpha,Beta,False,0.24362010008189827,30,False,0
11069,training_phase_2,2,2,27,materials/images/greenD4.png,Delta,Beta,False,2.8641061999369413,30,False,0
11069,training_phase_2,2,2,28,materials/images/redA3.png,Alpha,Alpha,True,0.2886870999354869,30,False,1
11069,training_phase_2,2,2,29,materials/images/blueB4.png,Beta,Alpha,False,2.1116553000174463,30,False,1
11069,training_phase_2,2,2,30,materials/images/blackG4.png,Gamma,Gamma,True,0.23668349999934435,30,False,2
11069,training_phase_2,2,2,31,materials/images/redA2.png,Alpha,Alpha,True,0.052891100058332086,30,False,3
11069,training_phase_2,2,2,32,materials/images/greenD3.png,Delta,Delta,True,1.607768899993971,30,False,4
11069,training_phase_2,2,2,33,materials/images/redA4.png,Alpha,Beta,False,1.0157360000303015,30,False,4
11069,training_phase_2,2,2,34,materials/images/blueB2.png,Beta,Beta,True,0.14281160000246018,30,False,5
11069,training_phase_2,2,2,35,materials/images/blackG5.png,Gamma,Beta,False,1.677080300054513,30,False,5
11069,training_phase_2,2,2,36,materials/images/blackG6.png,Gamma,Beta,False,0.395836100098677,30,False,5
11069,training_phase_2,2,2,37,materials/images/blueB1.png,Beta,Beta,True,0.019809899968095124,30,False,6
11069,training_phase_2,2,2,38,materials/images/greenD1.png,Delta,Gamma,False,0.4703189000720158,30,False,6
11069,training_phase_2,2,2,39,materials/images/blueB3.png,Beta,Delta,False,1.0905545999994501,30,False,6
11069,training_phase_2,2,2,40,materials/images/greenD6.png,Delta,Delta,True,0.7829901999793947,30,False,7
11069,training_phase_2,2,2,41,materials/images/greenD2.png,Delta,Beta,False,1.9505510999588296,30,False,7
11069,training_phase_2,2,2,42,materials/images/blueB5.png,Beta,Beta,True,1.122848500031978,30,False,8
11069,training_phase_2,2,2,43,materials/images/blackG3.png,Gamma,Beta,False,1.2225707999896258,30,False,8
11069,training_phase_2,2,2,44,materials/images/greenD5.png,Delta,Delta,True,0.7909680999582633,30,False,9
11069,training_phase_2,2,2,45,materials/images/blackG2.png,Gamma,Beta,False,0.06977760000154376,30,False,9
11069,training_phase_2,2,2,46,materials/images/redA5.png,Alpha,Beta,False,0.6639866000041366,30,False,9
11069,training_phase_2,2,2,47,materials/images/blackG1.png,Gamma,Beta,False,0.30059280002024025,30,False,9
11069,training_phase_2,2,2,48,materials/images/redA1.png,Alpha,Alpha,True,0.16891200002282858,30,False,10
