pnum,phase_id,condition,block_data,trial_num,stim,correct_category,response,hit,rt,criterian,met_criterian,num_correct_in_block
11066,training_phase_1,1,1,1,materials/images/redA4.png,Alpha,Alpha,True,1.4590650000609457,11,False,1
11066,training_phase_1,1,1,2,materials/images/blueB4.png,Beta,Alpha,False,2.2585455999942496,11,False,1
11066,training_phase_1,1,1,3,materials/images/redA6.png,Alpha,Alpha,True,1.8340542000951245,11,False,2
11066,training_phase_1,1,1,4,materials/images/blueB5.png,Beta,Beta,True,0.3768752000760287,11,False,3
11066,training_phase_1,1,1,5,materials/images/redA3.png,Alpha,Alpha,True,1.751755899982527,11,False,4
11066,training_phase_1,1,1,6,materials/images/blueB1.png,Beta,Alpha,False,0.26325570000335574,11,False,4
11066,training_phase_1,1,1,7,materials/images/blueB3.png,Beta,Alpha,False,1.3338477000361308,11,False,4
11066,training_phase_1,1,1,8,materials/images/blueB6.png,Beta,Alpha,False,2.2405223000096157,11,False,4
11066,training_phase_1,1,1,9,materials/images/redA5.png,Alpha,Beta,False,0.770202900050208,11,False,4
11066,training_phase_1,1,1,10,materials/images/blueB2.png,Beta,Alpha,False,1.8373170000268146,11,False,4
11066,training_phase_1,1,1,11,materials/images/redA2.png,Alpha,Alpha,True,0.33859499997925013,11,False,5
11066,training_phase_1,1,1,12,materials/images/redA1.png,Alpha,Alpha,True,0.5557834999635816,11,False,6
11066,training_phase_1,1,2,13,materials/images/redA2.png,Alpha,Alpha,True,0.16053069999907166,11,False,1
11066,training_phase_1,1,2,14,materials/images/blueB3.png,Beta,Beta,True,0.01983989996369928,11,False,2
11066,training_phase_1,1,2,15,materials/images/blueB1.png,Beta,Beta,True,0.038793800049461424,11,False,3
11066,training_phase_1,1,2,16,materials/images/blueB4.png,Beta,Alpha,False,0.4792764999438077,11,False,3
11066,training_phase_1,1,2,17,materials/images/redA1.png,Alpha,Alpha,True,0.21585220005363226,11,False,4
11066,training_phase_1,1,2,18,materials/images/blueB6.png,Beta,Beta,True,0.14927960000932217,11,False,5
11066,training_phase_1,1,2,19,materials/images/redA6.png,Alpha,Beta,False,0.8868449999717996,11,False,5
11066,training_phase_1,1,2,20,materials/images/blueB5.png,Beta,Beta,True,0.912311700056307,11,False,6
11066,training_phase_1,1,2,21,materials/images/redA4.png,Alpha,Alpha,True,0.3782640000572428,11,False,7
11066,training_phase_1,1,2,22,materials/images/blueB2.png,Beta,Beta,True,0.6145804000552744,11,False,8
11066,training_phase_1,1,2,23,materials/images/redA3.png,Alpha,Alpha,True,0.4344132000114769,11,False,9
11066,training_phase_1,1,2,24,materials/images/redA5.png,Alpha,Beta,False,0.5963396000443026,11,False,9
11066,training_phase_1,1,3,25,materials/images/redA5.png,Alpha,Alpha,True,5.153368000057526,11,False,1
11066,training_phase_1,1,3,26,materials/images/blueB5.png,Beta,Alpha,False,1.750708399922587,11,False,1
11066,training_phase_1,1,3,27,materials/images/blueB2.png,Beta,Alpha,False,0.9877984001068398,11,False,1
11066,training_phase_1,1,3,28,materials/images/redA3.png,Alpha,Alpha,True,1.855747799971141,11,False,2
11066,training_phase_1,1,3,29,materials/images/blueB4.png,Beta,Beta,True,0.3743044000584632,11,False,3
11066,training_phase_1,1,3,30,materials/images/blueB6.png,Beta,Beta,True,2.2839722000062466,11,False,4
11066,training_phase_1,1,3,31,materials/images/blueB1.png,Beta,Alpha,False,0.4459946999559179,11,False,4
11066,training_phase_1,1,3,32,materials/images/redA2.png,Alpha,Beta,False,1.3834231999935582,11,False,4
11066,training_phase_1,1,3,33,materials/images/redA6.png,Alpha,Beta,False,0.26297889999113977,11,False,4
11066,training_phase_1,1,3,34,materials/images/redA1.png,Alpha,Alpha,True,0.5939844000386074,11,False,5
11066,training_phase_1,1,3,35,materials/images/blueB3.png,Beta,Alpha,False,0.9680159999988973,11,False,5
11066,training_phase_1,1,3,36,materials/images/redA4.png,Alpha,Alpha,True,5.659811099991202,11,False,6
11066,training_phase_1,1,4,37,materials/images/blueB2.png,Beta,Beta,True,2.241353700053878,11,False,1
11066,training_phase_1,1,4,38,materials/images/blueB6.png,Beta,Beta,True,2.1337624000152573,11,False,2
11066,training_phase_1,1,4,39,materials/images/redA2.png,Alpha,Alpha,True,1.5306483999593183,11,False,3
11066,training_phase_1,1,4,40,materials/images/redA3.png,Alpha,Alpha,True,0.9825990999815986,11,False,4
11066,training_phase_1,1,4,41,materials/images/blueB1.png,Beta,Beta,True,0.7091054000193253,11,False,5
11066,training_phase_1,1,4,42,materials/images/redA5.png,Alpha,Alpha,True,1.442910100100562,11,False,6
11066,training_phase_1,1,4,43,materials/images/blueB5.png,Beta,Beta,True,0.5681759000290185,11,False,7
11066,training_phase_1,1,4,44,materials/images/redA4.png,Alpha,Alpha,True,0.2695086000021547,11,False,8
11066,training_phase_1,1,4,45,materials/images/blueB4.png,Beta,Beta,True,0.01979879999998957,11,False,9
11066,training_phase_1,1,4,46,materials/images/redA1.png,Alpha,Alpha,True,0.44301759998779744,11,False,10
11066,training_phase_1,1,4,47,materials/images/redA6.png,Alpha,Beta,False,0.8653689000057057,11,False,10
11066,training_phase_1,1,4,48,materials/images/blueB3.png,Beta,Alpha,False,0.11485290003474802,11,False,10
11066,training_phase_1,1,5,49,materials/images/redA2.png,Alpha,Alpha,True,6.820949299959466,11,False,1
11066,training_phase_1,1,5,50,materials/images/blueB4.png,Beta,Beta,True,0.4987683000508696,11,False,2
11066,training_phase_1,1,5,51,materials/images/redA6.png,Alpha,Alpha,True,0.35574599995743483,11,False,3
11066,training_phase_1,1,5,52,materials/images/redA3.png,Alpha,Beta,False,0.1344614999834448,11,False,3
11066,training_phase_1,1,5,53,materials/images/redA5.png,Alpha,Beta,False,0.0640014000236988,11,False,3
11066,training_phase_1,1,5,54,materials/images/redA4.png,Alpha,Alpha,True,2.899002999998629,11,False,4
11066,training_phase_1,1,5,55,materials/images/blueB5.png,Beta,Beta,True,1.778070200001821,11,False,5
11066,training_phase_1,1,5,56,materials/images/redA1.png,Alpha,Beta,False,2.069527000072412,11,False,5
11066,training_phase_1,1,5,57,materials/images/blueB3.png,Beta,Alpha,False,1.6826869000215083,11,False,5
11066,training_phase_1,1,5,58,materials/images/blueB2.png,Beta,Alpha,False,0.6493680001003668,11,False,5
11066,training_phase_1,1,5,59,materials/images/blueB1.png,Beta,Beta,True,0.34441319992765784,11,False,6
11066,training_phase_1,1,5,60,materials/images/blueB6.png,Beta,Alpha,False,0.46075610001571476,11,False,6
11066,training_phase_1,1,6,61,materials/images/blueB1.png,Beta,Beta,True,0.9112182001117617,11,False,1
11066,training_phase_1,1,6,62,materials/images/blueB6.png,Beta,Beta,True,0.2827205000212416,11,False,2
11066,training_phase_1,1,6,63,materials/images/redA1.png,Alpha,Alpha,True,0.43389480002224445,11,False,3
11066,training_phase_1,1,6,64,materials/images/blueB2.png,Beta,Alpha,False,0.36862129997462034,11,False,3
11066,training_phase_1,1,6,65,materials/images/blueB4.png,Beta,Beta,True,0.852367699961178,11,False,4
11066,training_phase_1,1,6,66,materials/images/blueB5.png,Beta,Alpha,False,0.24485240003559738,11,False,4
11066,training_phase_1,1,6,67,materials/images/redA5.png,Alpha,Alpha,True,0.6442051000194624,11,False,5
11066,training_phase_1,1,6,68,materials/images/redA6.png,Alpha,Alpha,True,0.09718080004677176,11,False,6
11066,training_phase_1,1,6,69,materials/images/redA4.png,Alpha,Beta,False,1.0655365999555215,11,False,6
11066,training_phase_1,1,6,70,materials/images/blueB3.png,Beta,Alpha,False,0.9672543999040499,11,False,6
11066,training_phase_1,1,6,71,materials/images/redA3.png,Alpha,Beta,False,2.2481424999423325,11,False,6
11066,training_phase_1,1,6,72,materials/images/redA2.png,Alpha,Beta,False,0.39286599995102733,11,False,6
11066,training_phase_1,1,7,73,materials/images/blueB4.png,Beta,Alpha,False,0.7885690999682993,11,False,0
11066,training_phase_1,1,7,74,materials/images/blueB5.png,Beta,Alpha,False,0.8564724000170827,11,False,0
11066,training_phase_1,1,7,75,materials/images/blueB2.png,Beta,Beta,True,4.987347500049509,11,False,1
11066,training_phase_1,1,7,76,materials/images/redA1.png,Alpha,Beta,False,0.646594800055027,11,False,1
11066,training_phase_1,1,7,77,materials/images/blueB3.png,Beta,Beta,True,0.5257974000414833,11,False,2
11066,training_phase_1,1,7,78,materials/images/redA5.png,Alpha,Alpha,True,0.10465190000832081,11,False,3
11066,training_phase_1,1,7,79,materials/images/blueB6.png,Beta,Beta,True,2.304661100031808,11,False,4
11066,training_phase_1,1,7,80,materials/images/blueB1.png,Beta,Beta,True,0.2749634999781847,11,False,5
11066,training_phase_1,1,7,81,materials/images/redA6.png,Alpha,Beta,False,0.6051563000073656,11,False,5
11066,training_phase_1,1,7,82,materials/images/redA2.png,Alpha,Alpha,True,0.5680768999736756,11,False,6
11066,training_phase_1,1,7,83,materials/images/redA3.png,Alpha,Alpha,True,0.1134815999539569,11,False,7
11066,training_phase_1,1,7,84,materials/images/redA4.png,Alpha,Beta,False,1.6194501999998465,11,False,7
11066,training_phase_1,1,8,85,materials/images/blueB1.png,Beta,Beta,True,0.5339284999063239,11,False,1
11066,training_phase_1,1,8,86,materials/images/redA1.png,Alpha,Beta,False,2.7264807000756264,11,False,1
11066,training_phase_1,1,8,87,materials/images/blueB6.png,Beta,Alpha,False,0.1001972999656573,11,False,1
11066,training_phase_1,1,8,88,materials/images/blueB4.png,Beta,Beta,True,0.9204017999581993,11,False,2
11066,training_phase_1,1,8,89,materials/images/blueB5.png,Beta,Beta,True,0.018930100020952523,11,False,3
11066,training_phase_1,1,8,90,materials/images/redA6.png,Alpha,Alpha,True,0.5092576999450102,11,False,4
11066,training_phase_1,1,8,91,materials/images/redA4.png,Alpha,Beta,False,0.6729744999902323,11,False,4
11066,training_phase_1,1,8,92,materials/images/blueB2.png,Beta,Beta,True,0.3401247999863699,11,False,5
11066,training_phase_1,1,8,93,materials/images/blueB3.png,Beta,Beta,True,0.018567100050859153,11,False,6
11066,training_phase_1,1,8,94,materials/images/redA5.png,Alpha,Beta,False,1.3864389000227675,11,False,6
11066,training_phase_1,1,8,95,materials/images/redA3.png,Alpha,Alpha,True,0.6547356999944896,11,False,7
11066,training_phase_1,1,8,96,materials/images/redA2.png,Alpha,Alpha,True,0.4280321999685839,11,False,8
pnum,phase_id,condition,block_data,trial_num,stim,correct_category,response,hit,rt,criterian,met_criterian,num_correct_in_block
11066,test_phase,1,1,1,materials/images/yGen3.png,test,Beta,gen,3.5416176000144333,1,True,1
11066,test_phase,1,1,2,materials/images/redA2.png,Alpha,Beta,gen,0.8937577999895439,1,True,2
11066,test_phase,1,1,3,materials/images/blueB6.png,Beta,Alpha,gen,1.8966006999835372,1,True,3
11066,test_phase,1,1,4,materials/images/blueB4.png,Beta,Beta,gen,3.3085328000597656,1,True,4
11066,test_phase,1,1,5,materials/images/redA1.png,Alpha,Beta,gen,1.9894950999878347,1,True,5
11066,test_phase,1,1,6,materials/images/redA3.png,Alpha,Beta,gen,0.9481324000516906,1,True,6
11066,test_phase,1,1,7,materials/images/blueB5.png,Beta,Alpha,gen,0.9946483001112938,1,True,7
11066,test_phase,1,1,8,materials/images/blueB3.png,Beta,Beta,gen,0.14370919996872544,1,True,8
11066,test_phase,1,1,9,materials/images/yGen2.png,test,Beta,gen,0.861092499922961,1,True,9
11066,test_phase,1,1,10,materials/images/yGen4.png,test,Alpha,gen,0.869015600066632,1,True,10
11066,test_phase,1,1,11,materials/images/yGen1.png,test,Beta,gen,0.9889334000181407,1,True,11
11066,test_phase,1,1,12,materials/images/redA5.png,Alpha,Alpha,gen,0.4232272000517696,1,True,12
11066,test_phase,1,1,13,materials/images/redA4.png,Alpha,Beta,gen,0.5527863999595866,1,True,13
11066,test_phase,1,1,14,materials/images/blueB1.png,Beta,Beta,gen,0.027713699964806437,1,True,14
11066,test_phase,1,1,15,materials/images/yGen5.png,test,Alpha,gen,0.3154753999551758,1,True,15
11066,test_phase,1,1,16,materials/images/blueB2.png,Beta,Beta,gen,0.0238460999680683,1,True,16
11066,test_phase,1,1,17,materials/images/redA6.png,Alpha,Alpha,gen,0.9485874999081716,1,True,17
pnum,phase_id,condition,block_data,trial_num,stim,correct_category,response,hit,rt,criterian,met_criterian,num_correct_in_block
11066,training_phase_2,1,1,1,materials/images/blueB4.png,Beta,Alpha,False,1.1617143999319524,30,False,0
11066,training_phase_2,1,1,2,materials/images/greenD6.png,Delta,Beta,False,0.7827225000364706,30,False,0
11066,training_phase_2,1,1,3,materials/images/blueB1.png,Beta,Beta,True,0.21295780001673847,30,False,1
11066,training_phase_2,1,1,4,materials/images/greenD3.png,Delta,Delta,True,0.3199097999604419,30,False,2
11066,training_phase_2,1,1,5,materials/images/blackG6.png,Gamma,Gamma,True,0.475224900059402,30,False,3
11066,training_phase_2,1,1,6,materials/images/redA3.png,Alpha,Beta,False,0.3676335000200197,30,False,3
11066,training_phase_2,1,1,7,materials/images/blueB6.png,Beta,Alpha,False,0.47727489995304495,30,False,3
11066,training_phase_2,1,1,8,materials/images/greenD5.png,Delta,Alpha,False,0.8405500999651849,30,False,3
11066,training_phase_2,1,1,9,materials/images/blackG1.png,Gamma,Beta,False,0.0954316999996081,30,False,3
11066,training_phase_2,1,1,10,materials/images/blueB3.png,Beta,Delta,False,0.17219019995536655,30,False,3
11066,training_phase_2,1,1,11,materials/images/redA4.png,Alpha,Gamma,False,0.4102242999942973,30,False,3
11066,training_phase_2,1,1,12,materials/images/blackG2.png,Gamma,Beta,False,0.45106890005990863,30,False,3
11066,training_phase_2,1,1,13,materials/images/redA6.png,Alpha,Delta,False,0.04144410009030253,30,False,3
11066,training_phase_2,1,1,14,materials/images/blackG4.png,Gamma,Gamma,True,0.4181032000342384,30,False,4
11066,training_phase_2,1,1,15,materials/images/redA5.png,Alpha,Gamma,False,0.01899430004414171,30,False,4
11066,training_phase_2,1,1,16,materials/images/greenD2.png,Delta,Alpha,False,0.5800699999090284,30,False,4
11066,training_phase_2,1,1,17,materials/images/redA2.png,Alpha,Alpha,True,0.779366199974902,30,False,5
11066,training_phase_2,1,1,18,materials/images/redA1.png,Alpha,Gamma,False,0.6615113000152633,30,False,5
11066,training_phase_2,1,1,19,materials/images/greenD4.png,Delta,Delta,True,0.2601300000678748,30,False,6
11066,training_phase_2,1,1,20,materials/images/blackG5.png,Gamma,Alpha,False,0.20048889995086938,30,False,6
11066,training_phase_2,1,1,21,materials/images/blackG3.png,Gamma,Beta,False,0.09670879994519055,30,False,6
11066,training_phase_2,1,1,22,materials/images/blueB2.png,Beta,Beta,True,0.023049599956721067,30,False,7
11066,training_phase_2,1,1,23,materials/images/blueB5.png,Beta,Gamma,False,0.018613599939271808,30,False,7
11066,training_phase_2,1,1,24,materials/images/greenD1.png,Delta,Delta,True,1.2465921000111848,30,False,8
11066,training_phase_2,1,2,25,materials/images/greenD2.png,Delta,Delta,True,0.34249140007887036,30,False,1
11066,training_phase_2,1,2,26,materials/images/redA6.png,Alpha,Beta,False,0.038747600046917796,30,False,1
11066,training_phase_2,1,2,27,materials/images/redA3.png,Alpha,Alpha,True,0.4456724999472499,30,False,2
11066,training_phase_2,1,2,28,materials/images/blackG4.png,Gamma,Gamma,True,0.02583340008277446,30,False,3
11066,training_phase_2,1,2,29,materials/images/greenD4.png,Delta,Alpha,False,0.4845935000339523,30,False,3
11066,training_phase_2,1,2,30,materials/images/redA1.png,Alpha,Gamma,False,1.0875664000632241,30,False,3
11066,training_phase_2,1,2,31,materials/images/blueB1.png,Beta,Beta,True,0.822138600051403,30,False,4
11066,training_phase_2,1,2,32,materials/images/redA5.png,Alpha,Alpha,True,0.3719006999162957,30,False,5
11066,training_phase_2,1,2,33,materials/images/blackG5.png,Gamma,Gamma,True,0.5683587999083102,30,False,6
11066,training_phase_2,1,2,34,materials/images/blackG6.png,Gamma,Gamma,True,0.018800800084136426,30,False,7
11066,training_phase_2,1,2,35,materials/images/blackG1.png,Gamma,Alpha,False,2.2661671999376267,30,False,7
11066,training_phase_2,1,2,36,materials/images/blueB6.png,Beta,Alpha,False,0.7058061000425369,30,False,7
11066,training_phase_2,1,2,37,materials/images/blueB5.png,Beta,Beta,True,0.5152355000609532,30,False,8
11066,training_phase_2,1,2,38,materials/images/redA2.png,Alpha,Alpha,True,0.11969790002331138,30,False,9
11066,training_phase_2,1,2,39,materials/images/greenD1.png,Delta,Delta,True,0.018654400017112494,30,False,10
11066,training_phase_2,1,2,40,materials/images/greenD6.png,Delta,Beta,False,0.6794226000783965,30,False,10
11066,training_phase_2,1,2,41,materials/images/redA4.png,Alpha,Gamma,False,0.34688520000781864,30,False,10
11066,training_phase_2,1,2,42,materials/images/blackG2.png,Gamma,Gamma,True,0.08406679995823652,30,False,11
11066,training_phase_2,1,2,43,materials/images/greenD5.png,Delta,Alpha,False,0.2646938000107184,30,False,11
11066,training_phase_2,1,2,44,materials/images/blueB4.png,Beta,Beta,True,0.8746190000092611,30,False,12
11066,training_phase_2,1,2,45,materials/images/greenD3.png,Delta,Delta,True,0.06799020001199096,30,False,13
11066,training_phase_2,1,2,46,materials/images/blueB2.png,Beta,Delta,False,1.0494190000463277,30,False,13
11066,training_phase_2,1,2,47,materials/images/blackG3.png,Gamma,Beta,False,0.02562030008994043,30,False,13
11066,training_phase_2,1,2,48,materials/images/blueB3.png,Beta,Beta,True,0.4553520999616012,30,False,14
