pnum,phase_id,condition,block_data,trial_num,stim,correct_category,response,hit,rt,criterian,met_criterian,num_correct_in_block
11098,training_phase_1,2,1,1,materials/images/blueB5.png,Beta,Alpha,False,1.5524337000679225,11,False,0
11098,training_phase_1,2,1,2,materials/images/redA2.png,Alpha,Alpha,True,5.038040299899876,11,False,1
11098,training_phase_1,2,1,3,materials/images/redA4.png,Alpha,Beta,False,0.963552099885419,11,False,1
11098,training_phase_1,2,1,4,materials/images/redA3.png,Alpha,Alpha,True,0.4313999000005424,11,False,2
11098,training_phase_1,2,1,5,materials/images/redA5.png,Alpha,Alpha,True,0.2190933998208493,11,False,3
11098,training_phase_1,2,1,6,materials/images/redA1.png,Alpha,Alpha,True,0.9041232999879867,11,False,4
11098,training_phase_1,2,1,7,materials/images/blueB1.png,Beta,Alpha,False,2.8744118998292834,11,False,4
11098,training_phase_1,2,1,8,materials/images/blueB3.png,Beta,Beta,True,0.9063773998059332,11,False,5
11098,training_phase_1,2,1,9,materials/images/blueB4.png,Beta,Alpha,False,1.528593400027603,11,False,5
11098,training_phase_1,2,1,10,materials/images/blueB6.png,Beta,Beta,True,1.4492568999994546,11,False,6
11098,training_phase_1,2,1,11,materials/images/blueB2.png,Beta,Beta,True,2.84292080020532,11,False,7
11098,training_phase_1,2,1,12,materials/images/redA6.png,Alpha,Beta,False,1.8219858000520617,11,False,7
11098,training_phase_1,2,2,13,materials/images/blueB6.png,Beta,Alpha,False,0.5206355999689549,11,False,0
11098,training_phase_1,2,2,14,materials/images/blueB3.png,Beta,Beta,True,0.9486998999491334,11,False,1
11098,training_phase_1,2,2,15,materials/images/redA3.png,Alpha,Alpha,True,2.985289900097996,11,False,2
11098,training_phase_1,2,2,16,materials/images/redA1.png,Alpha,Alpha,True,1.3568355001043528,11,False,3
11098,training_phase_1,2,2,17,materials/images/blueB2.png,Beta,Alpha,False,0.6781309999059886,11,False,3
11098,training_phase_1,2,2,18,materials/images/blueB4.png,Beta,Beta,True,3.6349321000743657,11,False,4
11098,training_phase_1,2,2,19,materials/images/redA5.png,Alpha,Beta,False,4.644555600127205,11,False,4
11098,training_phase_1,2,2,20,materials/images/blueB5.png,Beta,Beta,True,1.5916033999528736,11,False,5
11098,training_phase_1,2,2,21,materials/images/redA4.png,Alpha,Alpha,True,2.531263899989426,11,False,6
11098,training_phase_1,2,2,22,materials/images/blueB1.png,Beta,Alpha,False,4.648460799828172,11,False,6
11098,training_phase_1,2,2,23,materials/images/redA2.png,Alpha,Alpha,True,0.03041879995726049,11,False,7
11098,training_phase_1,2,2,24,materials/images/redA6.png,Alpha,Beta,False,1.5752626000903547,11,False,7
11098,training_phase_1,2,3,25,materials/images/redA4.png,Alpha,Alpha,True,3.0071789000649005,11,False,1
11098,training_phase_1,2,3,26,materials/images/blueB1.png,Beta,Beta,True,0.2016628000419587,11,False,2
11098,training_phase_1,2,3,27,materials/images/redA5.png,Alpha,Beta,False,2.321599500020966,11,False,2
11098,training_phase_1,2,3,28,materials/images/blueB5.png,Beta,Beta,True,0.16177829983644187,11,False,3
11098,training_phase_1,2,3,29,materials/images/redA1.png,Alpha,Alpha,True,0.563829299993813,11,False,4
11098,training_phase_1,2,3,30,materials/images/blueB6.png,Beta,Alpha,False,4.357023700140417,11,False,4
11098,training_phase_1,2,3,31,materials/images/redA6.png,Alpha,Beta,False,2.2930880999192595,11,False,4
11098,training_phase_1,2,3,32,materials/images/redA2.png,Alpha,Alpha,True,0.026407500030472875,11,False,5
11098,training_phase_1,2,3,33,materials/images/blueB3.png,Beta,Beta,True,1.8548528000246733,11,False,6
11098,training_phase_1,2,3,34,materials/images/blueB2.png,Beta,Beta,True,0.5725519000552595,11,False,7
11098,training_phase_1,2,3,35,materials/images/blueB4.png,Beta,Alpha,False,3.7490258999168873,11,False,7
11098,training_phase_1,2,3,36,materials/images/redA3.png,Alpha,Beta,False,0.5479472998995334,11,False,7
11098,training_phase_1,2,4,37,materials/images/redA3.png,Alpha,Alpha,True,0.0245624000672251,11,False,1
11098,training_phase_1,2,4,38,materials/images/redA5.png,Alpha,Beta,False,1.7605862999334931,11,False,1
11098,training_phase_1,2,4,39,materials/images/blueB5.png,Beta,Beta,True,0.39709579991176724,11,False,2
11098,training_phase_1,2,4,40,materials/images/blueB2.png,Beta,Beta,True,1.8005111999809742,11,False,3
11098,training_phase_1,2,4,41,materials/images/redA4.png,Alpha,Alpha,True,2.65984410000965,11,False,4
11098,training_phase_1,2,4,42,materials/images/blueB4.png,Beta,Beta,True,0.21558599988929927,11,False,5
11098,training_phase_1,2,4,43,materials/images/blueB3.png,Beta,Alpha,False,1.2922308000270277,11,False,5
11098,training_phase_1,2,4,44,materials/images/redA1.png,Alpha,Alpha,True,0.07834180002100766,11,False,6
11098,training_phase_1,2,4,45,materials/images/redA6.png,Alpha,Beta,False,1.8777481999713928,11,False,6
11098,training_phase_1,2,4,46,materials/images/redA2.png,Alpha,Alpha,True,0.02133959997445345,11,False,7
11098,training_phase_1,2,4,47,materials/images/blueB1.png,Beta,Beta,True,0.8835309999994934,11,False,8
11098,training_phase_1,2,4,48,materials/images/blueB6.png,Beta,Alpha,False,10.555966600077227,11,False,8
11098,training_phase_1,2,5,49,materials/images/blueB1.png,Beta,Beta,True,1.2832257999107242,11,False,1
11098,training_phase_1,2,5,50,materials/images/redA3.png,Alpha,Alpha,True,2.460412099957466,11,False,2
11098,training_phase_1,2,5,51,materials/images/redA6.png,Alpha,Alpha,True,4.873608599882573,11,False,3
11098,training_phase_1,2,5,52,materials/images/blueB6.png,Beta,Alpha,False,0.7205049998592585,11,False,3
11098,training_phase_1,2,5,53,materials/images/redA2.png,Alpha,Alpha,True,0.13615430006757379,11,False,4
11098,training_phase_1,2,5,54,materials/images/blueB5.png,Beta,Beta,True,1.7367682999465615,11,False,5
11098,training_phase_1,2,5,55,materials/images/redA5.png,Alpha,Alpha,True,10.58814620017074,11,False,6
11098,training_phase_1,2,5,56,materials/images/blueB4.png,Beta,Alpha,False,2.9199946001172066,11,False,6
11098,training_phase_1,2,5,57,materials/images/redA1.png,Alpha,Alpha,True,1.4273667999077588,11,False,7
11098,training_phase_1,2,5,58,materials/images/blueB3.png,Beta,Beta,True,2.945328800007701,11,False,8
11098,training_phase_1,2,5,59,materials/images/redA4.png,Alpha,Alpha,True,5.890073799993843,11,False,9
11098,training_phase_1,2,5,60,materials/images/blueB2.png,Beta,Beta,True,0.3933302001096308,11,False,10
11098,training_phase_1,2,6,61,materials/images/blueB5.png,Beta,Beta,True,1.525210800115019,11,False,1
11098,training_phase_1,2,6,62,materials/images/blueB2.png,Beta,Beta,True,0.8404578000772744,11,False,2
11098,training_phase_1,2,6,63,materials/images/blueB1.png,Beta,Beta,True,2.8043839000165462,11,False,3
11098,training_phase_1,2,6,64,materials/images/blueB3.png,Beta,Beta,True,3.370142800034955,11,False,4
11098,training_phase_1,2,6,65,materials/images/redA4.png,Alpha,Alpha,True,1.1445428999140859,11,False,5
11098,training_phase_1,2,6,66,materials/images/blueB4.png,Beta,Alpha,False,1.9956682999618351,11,False,5
11098,training_phase_1,2,6,67,materials/images/redA6.png,Alpha,Alpha,True,0.4897406999953091,11,False,6
11098,training_phase_1,2,6,68,materials/images/redA5.png,Alpha,Beta,False,3.4579105000011623,11,False,6
11098,training_phase_1,2,6,69,materials/images/redA2.png,Alpha,Alpha,True,0.6112735001370311,11,False,7
11098,training_phase_1,2,6,70,materials/images/blueB6.png,Beta,Beta,True,1.4646762001793832,11,False,8
11098,training_phase_1,2,6,71,materials/images/redA3.png,Alpha,Alpha,True,0.2173494000453502,11,False,9
11098,training_phase_1,2,6,72,materials/images/redA1.png,Alpha,Alpha,True,0.020266400184482336,11,False,10
11098,training_phase_1,2,7,73,materials/images/blueB6.png,Beta,Beta,True,0.4102638999465853,11,False,1
11098,training_phase_1,2,7,74,materials/images/blueB2.png,Beta,Beta,True,1.112252099905163,11,False,2
11098,training_phase_1,2,7,75,materials/images/redA6.png,Alpha,Alpha,True,3.611385399941355,11,False,3
11098,training_phase_1,2,7,76,materials/images/redA5.png,Alpha,Alpha,True,1.2480429999995977,11,False,4
11098,training_phase_1,2,7,77,materials/images/redA1.png,Alpha,Alpha,True,1.0026146001182497,11,False,5
11098,training_phase_1,2,7,78,materials/images/blueB5.png,Beta,Beta,True,1.1746688999701291,11,False,6
11098,training_phase_1,2,7,79,materials/images/blueB3.png,Beta,Beta,True,0.04638290009461343,11,False,7
11098,training_phase_1,2,7,80,materials/images/redA2.png,Alpha,Alpha,True,0.532672300003469,11,False,8
11098,training_phase_1,2,7,81,materials/images/blueB1.png,Beta,Beta,True,0.21783350012265146,11,False,9
11098,training_phase_1,2,7,82,materials/images/redA3.png,Alpha,Alpha,True,0.21635190001688898,11,False,10
11098,training_phase_1,2,7,83,materials/images/redA4.png,Alpha,Alpha,True,2.3578318001236767,11,True,11
11098,training_phase_1,2,7,84,materials/images/blueB4.png,Beta,Beta,True,2.300461299950257,11,True,12
pnum,phase_id,condition,block_data,trial_num,stim,correct_category,response,hit,rt,criterian,met_criterian,num_correct_in_block
11098,test_phase,2,1,1,materials/images/redA6.png,Alpha,Beta,gen,4.932802099967375,1,True,1
11098,test_phase,2,1,2,materials/images/redA3.png,Alpha,Alpha,gen,0.7249973998405039,1,True,2
11098,test_phase,2,1,3,materials/images/redA1.png,Alpha,Alpha,gen,0.724574799882248,1,True,3
11098,test_phase,2,1,4,materials/images/redA4.png,Alpha,Alpha,gen,0.3363361000083387,1,True,4
11098,test_phase,2,1,5,materials/images/blueB5.png,Beta,Beta,gen,0.4620254999026656,1,True,5
11098,test_phase,2,1,6,materials/images/yGen2.png,test,Beta,gen,5.19163340004161,1,True,6
11098,test_phase,2,1,7,materials/images/redA5.png,Alpha,Beta,gen,0.6169636000413448,1,True,7
11098,test_phase,2,1,8,materials/images/yGen1.png,test,Beta,gen,2.4218600001186132,1,True,8
11098,test_phase,2,1,9,materials/images/blueB2.png,Beta,Beta,gen,0.11510389996692538,1,True,9
11098,test_phase,2,1,10,materials/images/blueB3.png,Beta,Beta,gen,0.09310759999789298,1,True,10
11098,test_phase,2,1,11,materials/images/yGen5.png,test,Alpha,gen,2.978407399961725,1,True,11
11098,test_phase,2,1,12,materials/images/yGen4.png,test,Alpha,gen,4.418916500173509,1,True,12
11098,test_phase,2,1,13,materials/images/blueB4.png,Beta,Alpha,gen,0.39777430007234216,1,True,13
11098,test_phase,2,1,14,materials/images/yGen3.png,test,Beta,gen,3.077210000017658,1,True,14
11098,test_phase,2,1,15,materials/images/redA2.png,Alpha,Alpha,gen,0.25381459994241595,1,True,15
11098,test_phase,2,1,16,materials/images/blueB1.png,Beta,Beta,gen,0.5309533998370171,1,True,16
11098,test_phase,2,1,17,materials/images/blueB6.png,Beta,Beta,gen,4.591706200037152,1,True,17
pnum,phase_id,condition,block_data,trial_num,stim,correct_category,response,hit,rt,criterian,met_criterian,num_correct_in_block
11098,training_phase_2,2,1,1,materials/images/blackG2.png,Gamma,Beta,False,0.9697305001318455,30,False,0
11098,training_phase_2,2,1,2,materials/images/greenD6.png,Delta,Alpha,False,2.688296999782324,30,False,0
11098,training_phase_2,2,1,3,materials/images/redA1.png,Alpha,Alpha,True,0.5105962001252919,30,False,1
11098,training_phase_2,2,1,4,materials/images/blueB1.png,Beta,Beta,True,1.7603354000020772,30,False,2
11098,training_phase_2,2,1,5,materials/images/blackG3.png,Gamma,Gamma,True,2.2592902998439968,30,False,3
11098,training_phase_2,2,1,6,materials/images/blackG4.png,Gamma,Delta,False,0.7866225000470877,30,False,3
11098,training_phase_2,2,1,7,materials/images/blueB2.png,Beta,Beta,True,1.8235275000333786,30,False,4
11098,training_phase_2,2,1,8,materials/images/greenD4.png,Delta,Delta,True,4.629890500102192,30,False,5
11098,training_phase_2,2,1,9,materials/images/redA5.png,Alpha,Alpha,True,0.4344009000342339,30,False,6
11098,training_phase_2,2,1,10,materials/images/greenD3.png,Delta,Delta,True,0.39866219996474683,30,False,7
11098,training_phase_2,2,1,11,materials/images/blueB5.png,Beta,Gamma,False,2.4970064000226557,30,False,7
11098,training_phase_2,2,1,12,materials/images/redA6.png,Alpha,Alpha,True,4.589501100126654,30,False,8
11098,training_phase_2,2,1,13,materials/images/redA4.png,Alpha,Alpha,True,0.5900053000077605,30,False,9
11098,training_phase_2,2,1,14,materials/images/blueB6.png,Beta,Gamma,False,1.06269419984892,30,False,9
11098,training_phase_2,2,1,15,materials/images/blueB3.png,Beta,Beta,True,0.5140909000765532,30,False,10
11098,training_phase_2,2,1,16,materials/images/redA3.png,Alpha,Alpha,True,0.2868711999617517,30,False,11
11098,training_phase_2,2,1,17,materials/images/blackG6.png,Gamma,Beta,False,3.7640010002069175,30,False,11
11098,training_phase_2,2,1,18,materials/images/blackG5.png,Gamma,Gamma,True,0.20311470003798604,30,False,12
11098,training_phase_2,2,1,19,materials/images/blackG1.png,Gamma,Delta,False,3.2351615000516176,30,False,12
11098,training_phase_2,2,1,20,materials/images/greenD2.png,Delta,Delta,True,1.3699942000675946,30,False,13
11098,training_phase_2,2,1,21,materials/images/greenD1.png,Delta,Delta,True,0.13455169997178018,30,False,14
11098,training_phase_2,2,1,22,materials/images/greenD5.png,Delta,Beta,False,1.9896958000026643,30,False,14
11098,training_phase_2,2,1,23,materials/images/blueB4.png,Beta,Gamma,False,4.874066200107336,30,False,14
11098,training_phase_2,2,1,24,materials/images/redA2.png,Alpha,Alpha,True,0.024579399963840842,30,False,15
11098,training_phase_2,2,2,25,materials/images/redA1.png,Alpha,Alpha,True,0.019465100020170212,30,False,1
11098,training_phase_2,2,2,26,materials/images/redA6.png,Alpha,Gamma,False,1.8216853998601437,30,False,1
11098,training_phase_2,2,2,27,materials/images/blueB4.png,Beta,Alpha,False,2.078411400085315,30,False,1
11098,training_phase_2,2,2,28,materials/images/greenD2.png,Delta,Gamma,False,6.102025599917397,30,False,1
11098,training_phase_2,2,2,29,materials/images/greenD4.png,Delta,Delta,True,0.025610200129449368,30,False,2
11098,training_phase_2,2,2,30,materials/images/redA5.png,Alpha,Gamma,False,1.941175000043586,30,False,2
11098,training_phase_2,2,2,31,materials/images/blackG6.png,Gamma,Beta,False,4.294935800135136,30,False,2
11098,training_phase_2,2,2,32,materials/images/blueB6.png,Beta,Gamma,False,0.34839820000343025,30,False,2
11098,training_phase_2,2,2,33,materials/images/greenD6.png,Delta,Gamma,False,1.2894031000323594,30,False,2
11098,training_phase_2,2,2,34,materials/images/greenD5.png,Delta,Delta,True,0.09843959985300899,30,False,3
11098,training_phase_2,2,2,35,materials/images/greenD1.png,Delta,Beta,False,1.696993499994278,30,False,3
11098,training_phase_2,2,2,36,materials/images/redA2.png,Alpha,Alpha,True,0.15750390011817217,30,False,4
11098,training_phase_2,2,2,37,materials/images/blackG4.png,Gamma,Beta,False,4.175191999878734,30,False,4
11098,training_phase_2,2,2,38,materials/images/blueB3.png,Beta,Gamma,False,3.20391309983097,30,False,4
11098,training_phase_2,2,2,39,materials/images/blueB2.png,Beta,Beta,True,0.26805610000155866,30,False,5
11098,training_phase_2,2,2,40,materials/images/blackG3.png,Gamma,Beta,False,0.018292800057679415,30,False,5
11098,training_phase_2,2,2,41,materials/images/blackG2.png,Gamma,Beta,False,0.025059999898076057,30,False,5
11098,training_phase_2,2,2,42,materials/images/greenD3.png,Delta,Delta,True,2.9270478000398725,30,False,6
11098,training_phase_2,2,2,43,materials/images/blueB1.png,Beta,Beta,True,1.5011440999805927,30,False,7
11098,training_phase_2,2,2,44,materials/images/redA4.png,Alpha,Alpha,True,0.943173399893567,30,False,8
11098,training_phase_2,2,2,45,materials/images/blueB5.png,Beta,Delta,False,1.6331310998648405,30,False,8
11098,training_phase_2,2,2,46,materials/images/redA3.png,Alpha,Alpha,True,0.17714509996585548,30,False,9
11098,training_phase_2,2,2,47,materials/images/blackG5.png,Gamma,Beta,False,0.03774990001693368,30,False,9
11098,training_phase_2,2,2,48,materials/images/blackG1.png,Gamma,Gamma,True,1.3607395000290126,30,False,10
