pnum,phase_id,condition,block_data,trial_num,stim,correct_category,response,hit,rt,criterian,met_criterian,num_correct_in_block
11101,training_phase_1,2,1,1,materials/images/redA4.png,Alpha,Beta,False,1.0506474999710917,11,False,0
11101,training_phase_1,2,1,2,materials/images/blueB6.png,Beta,Alpha,False,0.7743160999380052,11,False,0
11101,training_phase_1,2,1,3,materials/images/redA6.png,Alpha,Alpha,True,0.3124621999450028,11,False,1
11101,training_phase_1,2,1,4,materials/images/redA5.png,Alpha,Alpha,True,0.07497989991679788,11,False,2
11101,training_phase_1,2,1,5,materials/images/blueB3.png,Beta,Alpha,False,0.39031289983540773,11,False,2
11101,training_phase_1,2,1,6,materials/images/blueB4.png,Beta,Alpha,False,1.6648130998946726,11,False,2
11101,training_phase_1,2,1,7,materials/images/redA2.png,Alpha,Beta,False,0.3122662999667227,11,False,2
11101,training_phase_1,2,1,8,materials/images/blueB5.png,Beta,Alpha,False,0.018019099719822407,11,False,2
11101,training_phase_1,2,1,9,materials/images/redA1.png,Alpha,Beta,False,0.6786811999045312,11,False,2
11101,training_phase_1,2,1,10,materials/images/redA3.png,Alpha,Alpha,True,0.09724960010498762,11,False,3
11101,training_phase_1,2,1,11,materials/images/blueB2.png,Beta,Alpha,False,0.35717290034517646,11,False,3
11101,training_phase_1,2,1,12,materials/images/blueB1.png,Beta,Beta,True,1.959632699843496,11,False,4
11101,training_phase_1,2,2,13,materials/images/blueB6.png,Beta,Beta,True,1.1410032999701798,11,False,1
11101,training_phase_1,2,2,14,materials/images/redA2.png,Alpha,Alpha,True,0.5388275999575853,11,False,2
11101,training_phase_1,2,2,15,materials/images/blueB5.png,Beta,Alpha,False,1.3888247003778815,11,False,2
11101,training_phase_1,2,2,16,materials/images/blueB4.png,Beta,Beta,True,0.6007007998414338,11,False,3
11101,training_phase_1,2,2,17,materials/images/redA4.png,Alpha,Alpha,True,0.46380020026117563,11,False,4
11101,training_phase_1,2,2,18,materials/images/blueB1.png,Beta,Beta,True,1.8213729998096824,11,False,5
11101,training_phase_1,2,2,19,materials/images/redA1.png,Alpha,Beta,False,0.9158565001562238,11,False,5
11101,training_phase_1,2,2,20,materials/images/blueB2.png,Beta,Alpha,False,0.019426600076258183,11,False,5
11101,training_phase_1,2,2,21,materials/images/redA5.png,Alpha,Alpha,True,1.5014978996478021,11,False,6
11101,training_phase_1,2,2,22,materials/images/redA6.png,Alpha,Alpha,True,0.739075199700892,11,False,7
11101,training_phase_1,2,2,23,materials/images/redA3.png,Alpha,Beta,False,0.022847399581223726,11,False,7
11101,training_phase_1,2,2,24,materials/images/blueB3.png,Beta,Alpha,False,0.34921299992129207,11,False,7
11101,training_phase_1,2,3,25,materials/images/blueB1.png,Beta,Beta,True,1.504179900046438,11,False,1
11101,training_phase_1,2,3,26,materials/images/redA2.png,Alpha,Beta,False,1.7867220998741686,11,False,1
11101,training_phase_1,2,3,27,materials/images/blueB3.png,Beta,Beta,True,0.1833529998548329,11,False,2
11101,training_phase_1,2,3,28,materials/images/blueB4.png,Beta,Alpha,False,0.532719099894166,11,False,2
11101,training_phase_1,2,3,29,materials/images/redA3.png,Alpha,Alpha,True,0.6502485000528395,11,False,3
11101,training_phase_1,2,3,30,materials/images/redA1.png,Alpha,Beta,False,0.46564759965986013,11,False,3
11101,training_phase_1,2,3,31,materials/images/blueB2.png,Beta,Beta,True,0.2194266002625227,11,False,4
11101,training_phase_1,2,3,32,materials/images/redA6.png,Alpha,Alpha,True,3.8275628997944295,11,False,5
11101,training_phase_1,2,3,33,materials/images/blueB6.png,Beta,Alpha,False,0.3714012997224927,11,False,5
11101,training_phase_1,2,3,34,materials/images/blueB5.png,Beta,Alpha,False,0.018915300257503986,11,False,5
11101,training_phase_1,2,3,35,materials/images/redA5.png,Alpha,Alpha,True,0.3181462995707989,11,False,6
11101,training_phase_1,2,3,36,materials/images/redA4.png,Alpha,Beta,False,0.12613500002771616,11,False,6
11101,training_phase_1,2,4,37,materials/images/redA3.png,Alpha,Beta,False,0.6791071002371609,11,False,0
11101,training_phase_1,2,4,38,materials/images/blueB3.png,Beta,Alpha,False,1.4104325999505818,11,False,0
11101,training_phase_1,2,4,39,materials/images/redA2.png,Alpha,Beta,False,0.5064436001703143,11,False,0
11101,training_phase_1,2,4,40,materials/images/redA5.png,Alpha,Alpha,True,0.2949983002617955,11,False,1
11101,training_phase_1,2,4,41,materials/images/redA6.png,Alpha,Alpha,True,0.0671353000216186,11,False,2
11101,training_phase_1,2,4,42,materials/images/blueB2.png,Beta,Beta,True,0.21827130019664764,11,False,3
11101,training_phase_1,2,4,43,materials/images/redA4.png,Alpha,Alpha,True,0.1723402002826333,11,False,4
11101,training_phase_1,2,4,44,materials/images/blueB5.png,Beta,Alpha,False,0.25451070023700595,11,False,4
11101,training_phase_1,2,4,45,materials/images/redA1.png,Alpha,Alpha,True,0.323314500041306,11,False,5
11101,training_phase_1,2,4,46,materials/images/blueB4.png,Beta,Beta,True,0.27186419954523444,11,False,6
11101,training_phase_1,2,4,47,materials/images/blueB6.png,Beta,Alpha,False,0.3440319998189807,11,False,6
11101,training_phase_1,2,4,48,materials/images/blueB1.png,Beta,Beta,True,0.13960900017991662,11,False,7
11101,training_phase_1,2,5,49,materials/images/blueB4.png,Beta,Alpha,False,0.7265514000318944,11,False,0
11101,training_phase_1,2,5,50,materials/images/blueB3.png,Beta,Alpha,False,0.3149069002829492,11,False,0
11101,training_phase_1,2,5,51,materials/images/redA5.png,Alpha,Alpha,True,0.4725222000852227,11,False,1
11101,training_phase_1,2,5,52,materials/images/redA6.png,Alpha,Alpha,True,0.01950690010562539,11,False,2
11101,training_phase_1,2,5,53,materials/images/redA4.png,Alpha,Beta,False,0.14028639998286963,11,False,2
11101,training_phase_1,2,5,54,materials/images/redA2.png,Alpha,Beta,False,0.084631800185889,11,False,2
11101,training_phase_1,2,5,55,materials/images/blueB1.png,Beta,Beta,True,2.708326800260693,11,False,3
11101,training_phase_1,2,5,56,materials/images/redA3.png,Alpha,Alpha,True,0.5610022000037134,11,False,4
11101,training_phase_1,2,5,57,materials/images/redA1.png,Alpha,Alpha,True,0.02321860007941723,11,False,5
11101,training_phase_1,2,5,58,materials/images/blueB2.png,Beta,Beta,True,1.6204840000718832,11,False,6
11101,training_phase_1,2,5,59,materials/images/blueB5.png,Beta,Alpha,False,2.536925599910319,11,False,6
11101,training_phase_1,2,5,60,materials/images/blueB6.png,Beta,Alpha,False,0.05021610017865896,11,False,6
11101,training_phase_1,2,6,61,materials/images/redA6.png,Alpha,Beta,False,0.26570559991523623,11,False,0
11101,training_phase_1,2,6,62,materials/images/blueB1.png,Beta,Beta,True,14.804408899974078,11,False,1
11101,training_phase_1,2,6,63,materials/images/blueB2.png,Beta,Alpha,False,1.0528287999331951,11,False,1
11101,training_phase_1,2,6,64,materials/images/blueB3.png,Beta,Alpha,False,0.1536257998086512,11,False,1
11101,training_phase_1,2,6,65,materials/images/blueB6.png,Beta,Alpha,False,0.3486333000473678,11,False,1
11101,training_phase_1,2,6,66,materials/images/blueB4.png,Beta,Alpha,False,0.3278839997947216,11,False,1
11101,training_phase_1,2,6,67,materials/images/redA2.png,Alpha,Alpha,True,0.3241428001783788,11,False,2
11101,training_phase_1,2,6,68,materials/images/blueB5.png,Beta,Beta,True,1.6882187998853624,11,False,3
11101,training_phase_1,2,6,69,materials/images/redA5.png,Alpha,Beta,False,0.47307240031659603,11,False,3
11101,training_phase_1,2,6,70,materials/images/redA4.png,Alpha,Alpha,True,1.3349967999383807,11,False,4
11101,training_phase_1,2,6,71,materials/images/redA3.png,Alpha,Alpha,True,1.2637983998283744,11,False,5
11101,training_phase_1,2,6,72,materials/images/redA1.png,Alpha,Beta,False,0.7405499997548759,11,False,5
11101,training_phase_1,2,7,73,materials/images/redA2.png,Alpha,Beta,False,2.293334700167179,11,False,0
11101,training_phase_1,2,7,74,materials/images/blueB2.png,Beta,Beta,True,0.2594391996972263,11,False,1
11101,training_phase_1,2,7,75,materials/images/redA3.png,Alpha,Alpha,True,0.28214799985289574,11,False,2
11101,training_phase_1,2,7,76,materials/images/blueB6.png,Beta,Alpha,False,1.839278900064528,11,False,2
11101,training_phase_1,2,7,77,materials/images/blueB1.png,Beta,Beta,True,0.12287630001083016,11,False,3
11101,training_phase_1,2,7,78,materials/images/redA1.png,Alpha,Beta,False,0.15214709984138608,11,False,3
11101,training_phase_1,2,7,79,materials/images/blueB4.png,Beta,Alpha,False,0.4899939000606537,11,False,3
11101,training_phase_1,2,7,80,materials/images/blueB3.png,Beta,Beta,True,0.7383240000344813,11,False,4
11101,training_phase_1,2,7,81,materials/images/blueB5.png,Beta,Alpha,False,0.8405523002147675,11,False,4
11101,training_phase_1,2,7,82,materials/images/redA5.png,Alpha,Alpha,True,0.30363979982212186,11,False,5
11101,training_phase_1,2,7,83,materials/images/redA6.png,Alpha,Beta,False,0.018413300160318613,11,False,5
11101,training_phase_1,2,7,84,materials/images/redA4.png,Alpha,Alpha,True,5.7129330998286605,11,False,6
11101,training_phase_1,2,8,85,materials/images/blueB2.png,Beta,Beta,True,0.7027861000970006,11,False,1
11101,training_phase_1,2,8,86,materials/images/blueB1.png,Beta,Beta,True,0.37100759986788034,11,False,2
11101,training_phase_1,2,8,87,materials/images/redA2.png,Alpha,Beta,False,0.9692596001550555,11,False,2
11101,training_phase_1,2,8,88,materials/images/redA3.png,Alpha,Alpha,True,0.28801749972626567,11,False,3
11101,training_phase_1,2,8,89,materials/images/blueB4.png,Beta,Alpha,False,0.2635874003171921,11,False,3
11101,training_phase_1,2,8,90,materials/images/blueB5.png,Beta,Beta,True,0.03221240034326911,11,False,4
11101,training_phase_1,2,8,91,materials/images/blueB6.png,Beta,Alpha,False,0.2770279999822378,11,False,4
11101,training_phase_1,2,8,92,materials/images/blueB3.png,Beta,Beta,True,2.972924300003797,11,False,5
11101,training_phase_1,2,8,93,materials/images/redA4.png,Alpha,Beta,False,2.0333190001547337,11,False,5
11101,training_phase_1,2,8,94,materials/images/redA5.png,Alpha,Alpha,True,0.36458020005375147,11,False,6
11101,training_phase_1,2,8,95,materials/images/redA6.png,Alpha,Alpha,True,0.39519070042297244,11,False,7
11101,training_phase_1,2,8,96,materials/images/redA1.png,Alpha,Beta,False,0.16832759976387024,11,False,7
pnum,phase_id,condition,block_data,trial_num,stim,correct_category,response,hit,rt,criterian,met_criterian,num_correct_in_block
11101,test_phase,2,1,1,materials/images/blueB1.png,Beta,Beta,gen,1.156056100036949,1,True,1
11101,test_phase,2,1,2,materials/images/redA3.png,Alpha,Alpha,gen,2.130600600037724,1,True,2
11101,test_phase,2,1,3,materials/images/redA4.png,Alpha,Alpha,gen,0.03840569965541363,1,True,3
11101,test_phase,2,1,4,materials/images/blueB3.png,Beta,Beta,gen,0.16384329972788692,1,True,4
11101,test_phase,2,1,5,materials/images/yGen5.png,test,Alpha,gen,1.6379722002893686,1,True,5
11101,test_phase,2,1,6,materials/images/blueB6.png,Beta,Beta,gen,0.09711069986224174,1,True,6
11101,test_phase,2,1,7,materials/images/redA5.png,Alpha,Alpha,gen,0.8813617997802794,1,True,7
11101,test_phase,2,1,8,materials/images/yGen3.png,test,Alpha,gen,5.524454700294882,1,True,8
11101,test_phase,2,1,9,materials/images/yGen2.png,test,Beta,gen,0.07934550009667873,1,True,9
11101,test_phase,2,1,10,materials/images/blueB5.png,Beta,Alpha,gen,0.024368800222873688,1,True,10
11101,test_phase,2,1,11,materials/images/blueB2.png,Beta,Beta,gen,0.2103115003556013,1,True,11
11101,test_phase,2,1,12,materials/images/redA6.png,Alpha,Beta,gen,0.10791780008003116,1,True,12
11101,test_phase,2,1,13,materials/images/redA1.png,Alpha,Alpha,gen,0.022263099905103445,1,True,13
11101,test_phase,2,1,14,materials/images/yGen4.png,test,Alpha,gen,0.18689330015331507,1,True,14
11101,test_phase,2,1,15,materials/images/redA2.png,Alpha,Alpha,gen,0.32955250004306436,1,True,15
11101,test_phase,2,1,16,materials/images/yGen1.png,test,Beta,gen,3.3662510998547077,1,True,16
11101,test_phase,2,1,17,materials/images/blueB4.png,Beta,Alpha,gen,0.4382923003286123,1,True,17
pnum,phase_id,condition,block_data,trial_num,stim,correct_category,response,hit,rt,criterian,met_criterian,num_correct_in_block
11101,training_phase_2,2,1,1,materials/images/greenD3.png,Delta,Alpha,False,0.7988722999580204,30,False,0
11101,training_phase_2,2,1,2,materials/images/greenD2.png,Delta,Delta,True,0.018233700189739466,30,False,1
11101,training_phase_2,2,1,3,materials/images/greenD6.png,Delta,Gamma,False,0.22052180022001266,30,False,1
11101,training_phase_2,2,1,4,materials/images/redA6.png,Alpha,Beta,False,0.2237865999341011,30,False,1
11101,training_phase_2,2,1,5,materials/images/blackG6.png,Gamma,Beta,False,0.22762689972296357,30,False,1
11101,training_phase_2,2,1,6,materials/images/blueB6.png,Beta,Alpha,False,2.171689399983734,30,False,1
11101,training_phase_2,2,1,7,materials/images/blackG5.png,Gamma,Alpha,False,0.24616969982162118,30,False,1
11101,training_phase_2,2,1,8,materials/images/blackG4.png,Gamma,Gamma,True,0.19926790008321404,30,False,2
11101,training_phase_2,2,1,9,materials/images/blueB2.png,Beta,Beta,True,0.2685923003591597,30,False,3
11101,training_phase_2,2,1,10,materials/images/redA2.png,Alpha,Alpha,True,0.4816486998461187,30,False,4
11101,training_phase_2,2,1,11,materials/images/greenD1.png,Delta,Delta,True,0.9877094002440572,30,False,5
11101,training_phase_2,2,1,12,materials/images/greenD4.png,Delta,Beta,False,2.253406499978155,30,False,5
11101,training_phase_2,2,1,13,materials/images/blueB4.png,Beta,Alpha,False,1.9540625996887684,30,False,5
11101,training_phase_2,2,1,14,materials/images/blackG3.png,Gamma,Gamma,True,2.504410299938172,30,False,6
11101,training_phase_2,2,1,15,materials/images/redA4.png,Alpha,Alpha,True,1.4417995996773243,30,False,7
11101,training_phase_2,2,1,16,materials/images/blueB5.png,Beta,Beta,True,0.4903815002180636,30,False,8
11101,training_phase_2,2,1,17,materials/images/blueB3.png,Beta,Delta,False,0.04663809994235635,30,False,8
11101,training_phase_2,2,1,18,materials/images/redA1.png,Alpha,Alpha,True,0.16754769999533892,30,False,9
11101,training_phase_2,2,1,19,materials/images/redA5.png,Alpha,Gamma,False,0.23377300007268786,30,False,9
11101,training_phase_2,2,1,20,materials/images/blueB1.png,Beta,Beta,True,0.2572590000927448,30,False,10
11101,training_phase_2,2,1,21,materials/images/blackG2.png,Gamma,Gamma,True,3.2184828999452293,30,False,11
11101,training_phase_2,2,1,22,materials/images/blackG1.png,Gamma,Gamma,True,0.18954240018501878,30,False,12
11101,training_phase_2,2,1,23,materials/images/redA3.png,Alpha,Alpha,True,0.728392600081861,30,False,13
11101,training_phase_2,2,1,24,materials/images/greenD5.png,Delta,Beta,False,1.0479135997593403,30,False,13
11101,training_phase_2,2,2,25,materials/images/blueB3.png,Beta,Beta,True,0.2847581999376416,30,False,1
11101,training_phase_2,2,2,26,materials/images/blueB2.png,Beta,Beta,True,0.15625539980828762,30,False,2
11101,training_phase_2,2,2,27,materials/images/greenD5.png,Delta,Delta,True,0.062375400215387344,30,False,3
11101,training_phase_2,2,2,28,materials/images/blueB5.png,Beta,Alpha,False,0.022193100303411484,30,False,3
11101,training_phase_2,2,2,29,materials/images/redA5.png,Alpha,Alpha,True,1.6953425002284348,30,False,4
11101,training_phase_2,2,2,30,materials/images/blueB4.png,Beta,Beta,True,1.1267148000188172,30,False,5
11101,training_phase_2,2,2,31,materials/images/greenD3.png,Delta,Delta,True,0.7189039001241326,30,False,6
11101,training_phase_2,2,2,32,materials/images/greenD2.png,Delta,Delta,True,0.13382270000874996,30,False,7
11101,training_phase_2,2,2,33,materials/images/blackG5.png,Gamma,Alpha,False,0.9934988003224134,30,False,7
11101,training_phase_2,2,2,34,materials/images/redA4.png,Alpha,Alpha,True,0.06509889988228679,30,False,8
11101,training_phase_2,2,2,35,materials/images/blackG2.png,Gamma,Beta,False,0.4414923000149429,30,False,8
11101,training_phase_2,2,2,36,materials/images/blueB1.png,Beta,Beta,True,0.019086400046944618,30,False,9
11101,training_phase_2,2,2,37,materials/images/blackG3.png,Gamma,Beta,False,2.024269100278616,30,False,9
11101,training_phase_2,2,2,38,materials/images/redA1.png,Alpha,Alpha,True,1.0948524000123143,30,False,10
11101,training_phase_2,2,2,39,materials/images/redA3.png,Alpha,Beta,False,0.0225615999661386,30,False,10
11101,training_phase_2,2,2,40,materials/images/greenD1.png,Delta,Beta,False,0.35824309987947345,30,False,10
11101,training_phase_2,2,2,41,materials/images/blueB6.png,Beta,Gamma,False,0.17921269964426756,30,False,10
11101,training_phase_2,2,2,42,materials/images/blackG1.png,Gamma,Gamma,True,0.9597520995885134,30,False,11
11101,training_phase_2,2,2,43,materials/images/blackG4.png,Gamma,Beta,False,0.018066000193357468,30,False,11
11101,training_phase_2,2,2,44,materials/images/redA2.png,Alpha,Beta,False,4.560941000003368,30,False,11
11101,training_phase_2,2,2,45,materials/images/redA6.png,Alpha,Gamma,False,7.999093800317496,30,False,11
11101,training_phase_2,2,2,46,materials/images/greenD4.png,Delta,Delta,True,0.95586740039289,30,False,12
11101,training_phase_2,2,2,47,materials/images/greenD6.png,Delta,Delta,True,0.07745450036600232,30,False,13
11101,training_phase_2,2,2,48,materials/images/blackG6.png,Gamma,Gamma,True,5.652353400364518,30,False,14
